Sys_time [ms];accX [G];accY [G];accZ [G];gyroX [deg/s];gyroY [deg/s];gyroZ [deg/s];magX;magY;magZ;accHX [G];accHY [G];accHZ [G];Pressure [Pa];Temp [C];Latitude [deg];Longitude [deg];Alt_gnss [m];Fix;Alt_press [m];Alt_Kalman [m];Vel [m/s];q0;q1;q2;q3;Flightstate;Ign_det1;Ign_det2;Ign_det3;Ign_det4;Ign_state1;Ign_state2;Ign_state3;Ign_state4;Vbat [mV];Servo1 [%];Servo2 [%];Servo3 [%];Servo4 [%];Servo_en;CRC16
613.2008;0.975;0.011;0.052;-0.1;0.1;0;0;0;0;0.7;-0.7;-4;98324;34;0;0;0;0;-0.2;0;0;0.9499682;-0.01390971;-0.0216896;-0.3112823;1;0;0;0;0;0;0;0;0;4108;0;0;0;0;0;16726
613.2108;0.988;0.016;0.053;0;-0.1;0;0;0;0;0.8;-0.6;-3.5;98305;34;0;0;0;0;-0.2;0;0;0.9499665;-0.01395621;-0.02172039;-0.3112832;1;0;0;0;0;0;0;0;0;4108;0;0;0;0;0;14886
613.2208;0.988;0.01;0.061;0;0.1;0;0;0;0;0.8;-0.6;-4;98311;34;0;0;0;0;-0.1;0;0;0.9499622;-0.0139619;-0.02186703;-0.3112859;1;0;0;0;0;0;0;0;0;4108;0;0;0;0;0;24209
613.2308;0.983;0.016;0.053;0;-0.1;0;0;0;0;0.8;-0.6;-3.7;98311;34;0;0;0;0;-0.1;0;0;0.9499605;-0.01400905;-0.02189621;-0.3112867;1;0;0;0;0;0;0;0;0;4108;0;0;0;0;0;63782
613.2408;0.984;0.01;0.049;0;0.1;0.2;0;0;0;0.7;-0.6;-3.8;98317;34;0;0;0;0;-0.1;0;0;0.9499601;-0.01396868;-0.02190025;-0.3112896;1;0;0;0;0;0;0;0;0;4108;0;0;0;0;0;3330
613.2508;0.987;0.014;0.049;0.1;-0.1;0;0;0;0;1;-0.4;-3.6;98318;34;0;0;0;0;-0.1;0;0;0.9499598;-0.01397531;-0.02188717;-0.3112912;1;0;0;0;0;0;0;0;0;4108;0;0;0;0;0;4332
613.2608;0.987;0.009;0.055;-0.1;0.1;-0.1;0;0;0;0.9;-0.5;-3.9;98332;34;0;0;0;0;-0.1;0;0;0.9499573;-0.01394615;-0.02196394;-0.3112943;1;0;0;0;0;0;0;0;0;4108;0;0;0;0;0;9168
613.2708;0.984;0.013;0.054;0;0.1;0;0;0;0;0.9;-0.9;-3.9;98326;34;0;0;0;0;-0.2;0;0;0.9499555;-0.01396187;-0.02201345;-0.3112961;1;0;0;0;0;0;0;0;0;4108;0;0;0;0;0;39205
613.2808;0.984;0.011;0.048;0;0.1;0;0;0;0;0.7;-0.5;-3.9;98326;34;0;0;0;0;-0.2;0;0;0.9499554;-0.01393059;-0.02199895;-0.3112987;1;0;0;0;0;0;0;0;0;4108;0;0;0;0;0;37085
613.2908;0.986;0.012;0.057;0;0.1;0;0;0;0;0.6;-0.7;-3.7;98336;34;0;0;0;0;-0.2;0;0;0.9499524;-0.01394576;-0.02208542;-0.3113007;1;0;0;0;0;0;0;0;0;4108;0;0;0;0;0;53393
613.3008;0.994;0.016;0.054;0;0.1;0.1;0;0;0;0.8;-0.7;-4;98313;34;0;0;0;0;-0.2;0;0;0.9499509;-0.01399285;-0.02211458;-0.3113016;1;0;0;0;0;0;0;0;0;4108;0;0;0;0;0;57367
613.3108;0.991;0.011;0.051;-0.1;-0.1;0;0;0;0;0.5;-0.7;-3.7;98329;34;0;0;0;0;-0.2;0;0;0.94995;-0.01397007;-0.02212888;-0.3113041;1;0;0;0;0;0;0;0;0;4108;0;0;0;0;0;446
613.3208;0.992;0.016;0.048;0;0.2;0;0;0;0;1;-1.2;-3.6;98316;34;0;0;0;0;-0.2;0;0;0.9499502;-0.01399444;-0.02208815;-0.311305;1;0;0;0;0;0;0;0;0;4108;0;0;0;0;0;5918
613.3308;0.986;0.014;0.057;0;0.1;-0.1;0;0;0;0.7;-0.7;-3.8;98317;34;0;0;0;0;-0.2;0;0;0.9499475;-0.01403149;-0.02216469;-0.3113065;1;0;0;0;0;0;0;0;0;4108;0;0;0;0;0;3441
613.3408;0.987;0.015;0.051;0;-0.2;0.1;0;0;0;0.5;-0.8;-4;98322;34;0;0;0;0;-0.2;0;0;0.9499468;-0.01405595;-0.02216458;-0.3113077;1;0;0;0;0;0;0;0;0;4108;0;0;0;0;0;11052
613.3508;0.993;0.012;0.044;0;0;0.1;0;0;0;1.1;-0.4;-3.7;98317;34;0;0;0;0;-0.2;0;0;0.9499483;-0.01401592;-0.02209115;-0.3113101;1;0;0;0;0;0;0;0;0;4108;0;0;0;0;0;16716
613.3608;0.986;0.019;0.05;0;-0.1;0;0;0;0;0.6;-0.7;-3.9;98302;34;0;0;0;0;-0.1;0;0;0.9499478;-0.01408426;-0.02206629;-0.3113101;1;0;0;0;0;0;0;0;0;4108;0;0;0;0;0;6990
613.3708;0.976;0.012;0.049;0.1;0;0;0;0;0;0.6;-0.6;-3.9;98316;34;0;0;0;0;-0.1;0;0;0.9499474;-0.01406822;-0.02206269;-0.3113123;1;0;0;0;0;0;0;0;0;4108;0;0;0;0;0;28415
613.3808;0.99;0.017;0.052;0.1;0;-0.1;0;0;0;0.7;-0.6;-3.5;98316;34;0;0;0;0;-0.1;0;0;0.9499463;-0.01411786;-0.0220675;-0.3113129;1;0;0;0;0;0;0;0;0;4108;0;0;0;0;0;20516
613.3908;0.986;0.015;0.047;0;0.1;0;0;0;0;0.9;-0.9;-3.6;98317;34;0;0;0;0;-0.1;0;0;0.9499468;-0.01412519;-0.02202345;-0.3113143;1;0;0;0;0;0;0;0;0;4108;0;0;0;0;0;42454
613.4008;0.992;0.012;0.055;0;0.1;0.1;0;0;0;0.8;-0.7;-4;98318;34;0;0;0;0;-0.1;0;0;0.9499447;-0.01412573;-0.02208226;-0.3113165;1;0;0;0;0;0;0;0;0;4106;0;0;0;0;0;44170
613.4108;0.985;0.013;0.051;0;0;0.1;0;0;0;0.8;-0.9;-3.8;98336;34;0;0;0;0;-0.2;0;0;0.9499438;-0.01412509;-0.02209301;-0.3113185;1;0;0;0;0;0;0;0;0;4106;0;0;0;0;0;36116
613.4208;0.987;0.016;0.05;0.1;0;-0.1;0;0;0;0.9;-0.2;-3.8;98315;34;0;0;0;0;-0.1;0;0;0.9499434;-0.01415512;-0.02207912;-0.3113195;1;0;0;0;0;0;0;0;0;4106;0;0;0;0;0;17089
613.4308;0.988;0.016;0.049;0;0;0;0;0;0;0.6;-0.3;-3.9;98309;34;0;0;0;0;-0.1;0;0;0.9499432;-0.01418019;-0.02205335;-0.3113205;1;0;0;0;0;0;0;0;0;4106;0;0;0;0;0;49133
613.4408;0.984;0.018;0.047;0.1;-0.1;0;0;0;0;1.2;-0.3;-3.7;98321;34;0;0;0;0;-0.1;0;0;0.9499437;-0.01422197;-0.02199907;-0.311321;1;0;0;0;0;0;0;0;0;4106;0;0;0;0;0;58173
613.4508;0.996;0.011;0.044;0.1;-0.1;0;0;0;0;0.6;-0.5;-3.9;98310;34;0;0;0;0;-0.1;0;0;0.9499452;-0.01416526;-0.02193218;-0.3113239;1;0;0;0;0;0;0;0;0;4106;0;0;0;0;0;37748
613.4608;0.982;0.009;0.05;0;0.1;0;0;0;0;0.7;-0.4;-4;98320;34;0;0;0;0;-0.1;0;0;0.9499444;-0.01411369;-0.02195204;-0.3113272;1;0;0;0;0;0;0;0;0;4106;0;0;0;0;0;27552
613.4708;0.984;0.011;0.054;0;0.1;0;0;0;0;0.7;-0.6;-4.1;98308;34;0;0;0;0;0;0;0;0.9499425;-0.01410173;-0.02200955;-0.3113297;1;0;0;0;0;0;0;0;0;4106;0;0;0;0;0;57485
613.4808;0.993;0.007;0.048;-0.2;0.1;0;0;0;0;0.6;-0.6;-4;98311;34;0;0;0;0;0;0;0;0.9499425;-0.01401753;-0.02200572;-0.3113337;1;0;0;0;0;0;0;0;0;4106;0;0;0;0;0;16790
613.4908;0.981;0.011;0.054;0;0;0;0;0;0;0.9;-0.5;-3.8;98310;34;0;0;0;0;0;0;0;0.9499405;-0.01400899;-0.02206369;-0.3113361;1;0;0;0;0;0;0;0;0;4106;0;0;0;0;0;19217
613.5008;0.991;0.01;0.045;0;0.1;0;0;0;0;0.7;-0.5;-3.9;98315;34;0;0;0;0;0;0;0;0.9499415;-0.01395121;-0.02201305;-0.3113391;1;0;0;0;0;0;0;0;0;4107;0;0;0;0;0;6005
613.5108;0.989;0.015;0.053;0.2;0.1;0;0;0;0;0.9;-0.5;-3.8;98314;34;0;0;0;0;0.1;0;0;0.94994;-0.01398461;-0.02203901;-0.3113403;1;0;0;0;0;0;0;0;0;4107;0;0;0;0;0;22915
613.5208;0.99;0.014;0.043;0;0.1;0;0;0;0;0.7;-0.7;-3.8;98317;34;0;0;0;0;0.1;0;0;0.9499417;-0.01396687;-0.02195076;-0.311342;1;0;0;0;0;0;0;0;0;4107;0;0;0;0;0;34469
613.5308;0.991;0.004;0.054;0;0.1;0.1;0;0;0;1.1;-0.7;-3.7;98311;34;0;0;0;0;0.1;0;0;0.9499397;-0.01387447;-0.02203096;-0.3113467;1;0;0;0;0;0;0;0;0;4107;0;0;0;0;0;13365
613.5408;0.984;0.018;0.051;-0.1;0;0.2;0;0;0;0.8;-0.6;-3.8;98330;34;0;0;0;0;0.1;0;0;0.9499388;-0.01393928;-0.02202425;-0.3113469;1;0;0;0;0;0;0;0;0;4107;0;0;0;0;0;21260
613.5508;0.986;0.012;0.048;0;0.1;-0.2;0;0;0;0.9;-0.5;-4;98331;34;0;0;0;0;0;0;0;0.9499388;-0.01391971;-0.02200455;-0.3113491;1;0;0;0;0;0;0;0;0;4107;0;0;0;0;0;10686
613.5608;0.98;0.018;0.048;0.2;0;0.1;0;0;0;0.7;-0.8;-3.6;98324;34;0;0;0;0;0;0;0;0.9499389;-0.01397345;-0.02196526;-0.3113494;1;0;0;0;0;0;0;0;0;4107;0;0;0;0;0;49518
613.5708;0.989;0.02;0.061;0;0;0;0;0;0;0.9;-0.6;-4;98309;34;0;0;0;0;0;0;0;0.949935;-0.01409536;-0.02206668;-0.3113488;1;0;0;0;0;0;0;0;0;4107;0;0;0;0;0;8324
613.5808;0.985;0.012;0.053;0.1;-0.1;0;0;0;0;0.8;-0.7;-3.7;98308;34;0;0;0;0;0.1;0;0;0.9499334;-0.01409144;-0.02210513;-0.311351;1;0;0;0;0;0;0;0;0;4107;0;0;0;0;0;4924
613.5908;0.985;0.011;0.053;0;0.1;0.1;0;0;0;0.9;-0.5;-3.6;98322;34;0;0;0;0;0.1;0;0;0.9499317;-0.01407587;-0.02214648;-0.3113535;1;0;0;0;0;0;0;0;0;4107;0;0;0;0;0;38418
613.6008;0.981;0.012;0.051;0;-0.1;0;0;0;0;0.7;-0.6;-4;98331;34;0;0;0;0;0;0;0;0.9499309;-0.0140661;-0.02216171;-0.3113557;1;0;0;0;0;0;0;0;0;4105;0;0;0;0;0;48936
613.6108;0.99;0.011;0.058;0;0;0;0;0;0;0.7;-0.6;-4;98315;34;0;0;0;0;0;0;0;0.9499279;-0.01406862;-0.0222571;-0.3113582;1;0;0;0;0;0;0;0;0;4105;0;0;0;0;0;36069
613.6208;0.985;0.015;0.049;0.1;0;0;0;0;0;1;-0.9;-3.8;98296;34;0;0;0;0;0.1;0;0;0.9499277;-0.01408525;-0.02223227;-0.3113594;1;0;0;0;0;0;0;0;0;4105;0;0;0;0;0;1312
613.6308;0.985;0.014;0.06;0;0.1;0.2;0;0;0;0.7;-0.7;-3.8;98319;34;0;0;0;0;0.1;0;0;0.9499241;-0.01413196;-0.02234099;-0.3113608;1;0;0;0;0;0;0;0;0;4105;0;0;0;0;0;29482
613.6408;0.992;0.018;0.048;0;0;0;0;0;0;0.7;-0.5;-3.7;98319;34;0;0;0;0;0.1;0;0;0.9499245;-0.01417566;-0.02228728;-0.3113612;1;0;0;0;0;0;0;0;0;4105;0;0;0;0;0;50195
613.6508;0.987;0.013;0.047;0.1;0;0;0;0;0;0.6;-0.6;-3.8;98332;34;0;0;0;0;0.1;0;0;0.9499252;-0.01415776;-0.02224491;-0.3113632;1;0;0;0;0;0;0;0;0;4105;0;0;0;0;0;44759
613.6608;0.985;0.012;0.044;0;-0.1;0;0;0;0;0.9;-0.5;-3.5;98316;34;0;0;0;0;0.1;0;0;0.9499266;-0.01411768;-0.02217324;-0.3113656;1;0;0;0;0;0;0;0;0;4105;0;0;0;0;0;26137
613.6708;0.979;0.01;0.051;-0.2;0;0.1;0;0;0;0.5;-0.8;-3.6;98327;34;0;0;0;0;0;0;0;0.9499257;-0.01408393;-0.02219669;-0.3113685;1;0;0;0;0;0;0;0;0;4105;0;0;0;0;0;26007
613.6808;0.988;0.011;0.049;0;-0.1;0.1;0;0;0;1;-0.6;-3.4;98327;34;0;0;0;0;0;0;0;0.9499255;-0.01405222;-0.02218718;-0.3113711;1;0;0;0;0;0;0;0;0;4105;0;0;0;0;0;54649
613.6908;0.989;0.018;0.044;0;0.1;0;0;0;0;0.7;-0.4;-4;98313;34;0;0;0;0;0;0;0;0.9499271;-0.01408379;-0.02209201;-0.3113715;1;0;0;0;0;0;0;0;0;4105;0;0;0;0;0;12822
613.7008;0.984;0.006;0.054;0;0.1;0;0;0;0;0.7;-0.6;-3.9;98327;34;0;0;0;0;0;0;0;0.9499251;-0.0140138;-0.02216531;-0.3113756;1;0;0;0;0;0;0;0;0;4106;0;0;0;0;0;15340
613.7108;0.985;0.017;0.05;0.2;-0.2;0;0;0;0;0.7;-0.6;-3.5;98312;34;0;0;0;0;0;0;0;0.9499246;-0.01405915;-0.0221468;-0.3113762;1;0;0;0;0;0;0;0;0;4106;0;0;0;0;0;49163
613.7208;0.984;0.013;0.052;0;0.1;0;0;0;0;0.9;-0.4;-4.1;98330;34;0;0;0;0;0;0;0;0.9499235;-0.0140644;-0.02216822;-0.3113781;1;0;0;0;0;0;0;0;0;4106;0;0;0;0;0;34479
613.7308;0.987;0.013;0.052;0;0;0;0;0;0;0.7;-0.5;-4;98310;34;0;0;0;0;0;0;0;0.9499223;-0.01406847;-0.0221874;-0.31138;1;0;0;0;0;0;0;0;0;4106;0;0;0;0;0;55020
613.7408;0.995;0.013;0.054;0;0.1;-0.1;0;0;0;0.6;-0.7;-3.8;98318;34;0;0;0;0;0;0;0;0.9499207;-0.01407726;-0.02222487;-0.3113819;1;0;0;0;0;0;0;0;0;4106;0;0;0;0;0;1579
613.7508;0.985;0.008;0.046;0;0;0.1;0;0;0;0.6;-0.7;-3.8;98310;34;0;0;0;0;0.1;0;0;0.9499214;-0.01399988;-0.02219261;-0.3113855;1;0;0;0;0;0;0;0;0;4106;0;0;0;0;0;34528
613.7608;0.996;0.015;0.055;0;0;0;0;0;0;0.9;-0.6;-3.9;98309;34;0;0;0;0;0.1;0;0;0.9499195;-0.01403707;-0.02223334;-0.3113867;1;0;0;0;0;0;0;0;0;4106;0;0;0;0;0;38712
613.7708;0.985;0.012;0.05;0;0.1;0.1;0;0;0;0.7;-0.9;-4;98321;34;0;0;0;0;0.1;0;0;0.949919;-0.01402309;-0.02223241;-0.3113889;1;0;0;0;0;0;0;0;0;4106;0;0;0;0;0;752
613.7808;0.993;0.015;0.055;0;0.1;0.1;0;0;0;0.7;-0.5;-3.8;98314;34;0;0;0;0;0.1;0;0;0.9499171;-0.01406085;-0.02227389;-0.31139;1;0;0;0;0;0;0;0;0;4106;0;0;0;0;0;35129
613.7908;0.99;0.013;0.053;0.1;0;-0.1;0;0;0;0.6;-0.4;-4.1;98326;34;0;0;0;0;0.1;0;0;0.9499157;-0.01406778;-0.02230042;-0.3113919;1;0;0;0;0;0;0;0;0;4106;0;0;0;0;0;4313
613.8008;0.985;0.013;0.044;-0.1;0;0;0;0;0;0.5;-0.8;-4;98313;34;0;0;0;0;0.1;0;0;0.9499173;-0.01404172;-0.0222235;-0.3113939;1;0;0;0;0;0;0;0;0;4107;0;0;0;0;0;52832
613.8108;0.985;0.012;0.051;0.1;0;0;0;0;0;0.9;-0.4;-4;98319;34;0;0;0;0;0.1;0;0;0.9499164;-0.01403148;-0.02223455;-0.3113961;1;0;0;0;0;0;0;0;0;4107;0;0;0;0;0;25577
613.8208;0.978;0.016;0.051;0;0;0;0;0;0;0.8;-0.4;-3.4;98312;34;0;0;0;0;0.1;0;0;0.9499156;-0.01407119;-0.02223373;-0.3113969;1;0;0;0;0;0;0;0;0;4107;0;0;0;0;0;4781
613.8308;0.983;0.01;0.047;0.1;0.1;-0.2;0;0;0;0.6;-0.8;-3.8;98334;34;0;0;0;0;0;0;0;0.949916;-0.01402193;-0.02220632;-0.3113999;1;0;0;0;0;0;0;0;0;4107;0;0;0;0;0;45425
613.8408;0.986;0.004;0.048;0;0;0;0;0;0;0.5;-0.5;-4;98316;34;0;0;0;0;0;0;0;0.9499159;-0.0139064;-0.02221287;-0.3114047;1;0;0;0;0;0;0;0;0;4107;0;0;0;0;0;25800
613.8508;0.988;0.012;0.058;0;-0.1;0;0;0;0;0.6;-0.7;-3.7;98299;34;0;0;0;0;0.1;0;0;0.9499129;-0.01392535;-0.0223044;-0.3114067;1;0;0;0;0;0;0;0;0;4107;0;0;0;0;0;17289
613.8608;0.991;0.011;0.053;-0.1;-0.1;0;0;0;0;0.7;-0.9;-3.9;98320;34;0;0;0;0;0.1;0;0;0.9499115;-0.01391197;-0.02233725;-0.3114091;1;0;0;0;0;0;0;0;0;4107;0;0;0;0;0;11848
613.8708;0.976;0.013;0.045;0;0;0;0;0;0;0.9;-0.5;-4;98326;34;0;0;0;0;0.1;0;0;0.9499126;-0.01389662;-0.02227557;-0.311411;1;0;0;0;0;0;0;0;0;4107;0;0;0;0;0;13886
613.8808;0.983;0.011;0.048;0;0.1;-0.1;0;0;0;0.7;-0.7;-3.5;98329;34;0;0;0;0;0;0;0;0.9499127;-0.01386736;-0.022255;-0.3114135;1;0;0;0;0;0;0;0;0;4107;0;0;0;0;0;13017
613.8908;0.982;0.012;0.051;0;0;0;0;0;0;1.1;-0.6;-3.8;98316;34;0;0;0;0;0;0;0;0.9499118;-0.0138625;-0.02226694;-0.3114155;1;0;0;0;0;0;0;0;0;4107;0;0;0;0;0;20307
613.9008;0.991;0.015;0.057;0;0;0.1;0;0;0;0.7;-0.7;-3.8;98313;34;0;0;0;0;0.1;0;0;0.9499093;-0.01391268;-0.02233205;-0.3114165;1;0;0;0;0;0;0;0;0;4107;0;0;0;0;0;15678
613.9108;0.99;0.011;0.049;0;-0.1;0;0;0;0;1;-0.5;-3.8;98310;34;0;0;0;0;0.1;0;0;0.9499091;-0.01388464;-0.02231807;-0.311419;1;0;0;0;0;0;0;0;0;4107;0;0;0;0;0;16424
613.9208;0.988;0.005;0.057;0;0.1;0;0;0;0;0.8;-0.5;-3.8;98310;34;0;0;0;0;0.1;0;0;0.9499063;-0.01381833;-0.02242218;-0.3114232;1;0;0;0;0;0;0;0;0;4107;0;0;0;0;0;5681
613.9308;0.981;0.018;0.049;0;0.1;0;0;0;0;0.6;-0.5;-3.9;98313;34;0;0;0;0;0.1;0;0;0.9499062;-0.0138781;-0.0223837;-0.3114233;1;0;0;0;0;0;0;0;0;4107;0;0;0;0;0;29831
613.9408;0.984;0.013;0.052;0;0;0;0;0;0;0.9;-0.6;-3.7;98327;34;0;0;0;0;0.1;0;0;0.9499053;-0.01388791;-0.02239918;-0.311425;1;0;0;0;0;0;0;0;0;4107;0;0;0;0;0;17987
613.9508;0.99;0.008;0.053;0.1;0.1;0;0;0;0;0.7;-0.4;-3.5;98320;34;0;0;0;0;0.1;0;0;0.9499038;-0.01384073;-0.02244175;-0.3114283;1;0;0;0;0;0;0;0;0;4107;0;0;0;0;0;64140
613.9608;0.99;0.01;0.043;0;0;-0.1;0;0;0;0.5;-0.4;-4.2;98317;34;0;0;0;0;0.1;0;0;0.9499058;-0.01377983;-0.02235876;-0.3114313;1;0;0;0;0;0;0;0;0;4107;0;0;0;0;0;35816
613.9708;0.992;0.02;0.05;0.1;0;0;0;0;0;0.6;-0.4;-3.8;98308;34;0;0;0;0;0.1;0;0;0.9499055;-0.01386333;-0.02232024;-0.3114307;1;0;0;0;0;0;0;0;0;4107;0;0;0;0;0;30397
613.9808;0.989;0.006;0.048;0;-0.1;-0.1;0;0;0;0.6;-0.5;-3.7;98306;34;0;0;0;0;0.2;0;0;0.9499057;-0.01377449;-0.0223146;-0.3114348;1;0;0;0;0;0;0;0;0;4107;0;0;0;0;0;33461
613.9908;0.983;0.01;0.052;0;0.1;0;0;0;0;0.8;-0.5;-4.2;98325;34;0;0;0;0;0.1;0;0;0.9499044;-0.01375193;-0.02234397;-0.3114374;1;0;0;0;0;0;0;0;0;4107;0;0;0;0;0;14547
614.0008;0.996;0.016;0.047;0;-0.1;0;0;0;0;0.7;-0.7;-3.7;98319;34;0;0;0;0;0.1;0;0;0.9499053;-0.01377619;-0.02228371;-0.3114383;1;0;0;0;0;0;0;0;0;4107;0;0;0;0;0;62077
614.0108;0.992;0.007;0.045;0;0;-0.1;0;0;0;1;-0.3;-3.8;98319;34;0;0;0;0;0.1;0;0;0.9499062;-0.01368898;-0.02223854;-0.3114421;1;0;0;0;0;0;0;0;0;4107;0;0;0;0;0;46336
614.0208;0.985;0.018;0.057;0.1;0;0.1;0;0;0;1;-0.5;-3.9;98310;34;0;0;0;0;0.1;0;0;0.9499036;-0.0137811;-0.02229646;-0.311442;1;0;0;0;0;0;0;0;0;4107;0;0;0;0;0;5565
614.0308;0.982;0.011;0.052;0;0;0;0;0;0;0.8;-0.5;-3.8;98306;34;0;0;0;0;0.2;0;0;0.9499024;-0.01377048;-0.02232299;-0.3114443;1;0;0;0;0;0;0;0;0;4107;0;0;0;0;0;7460
614.0408;0.99;0.028;0.056;-0.1;-0.1;0;0;0;0;0.6;-0.6;-4.1;98303;34;0;0;0;0;0.2;0;0;0.9499005;-0.01398311;-0.02232192;-0.3114407;1;0;0;0;0;0;0;0;0;4107;0;0;0;0;0;7832
614.0508;0.99;0.008;0.05;0;-0.1;0;0;0;0;0.8;-0.5;-3.9;98309;34;0;0;0;0;0.3;0;0;0.9499;-0.01392208;-0.02233138;-0.3114442;1;0;0;0;0;0;0;0;0;4107;0;0;0;0;0;33370
614.0608;0.989;0.017;0.051;0.1;-0.1;0.1;0;0;0;0.6;-0.6;-3.7;98323;34;0;0;0;0;0.2;0;0;0.9498994;-0.01397202;-0.02231828;-0.3114447;1;0;0;0;0;0;0;0;0;4107;0;0;0;0;0;22415
614.0708;0.977;0.022;0.048;-0.1;0.1;0;0;0;0;0.6;-0.9;-3.9;98308;34;0;0;0;0;0.3;0;0;0.9498998;-0.01408492;-0.0222532;-0.3114433;1;0;0;0;0;0;0;0;0;4107;0;0;0;0;0;53478
614.0808;0.986;0.016;0.048;0;0.1;0;0;0;0;0.7;-0.5;-3.7;98323;34;0;0;0;0;0.2;0;0;0.9499001;-0.01410872;-0.02221234;-0.3114443;1;0;0;0;0;0;0;0;0;4107;0;0;0;0;0;33321
614.0908;0.985;0.008;0.05;0;0.1;0;0;0;0;0.7;-0.6;-4;98304;34;0;0;0;0;0.3;0;0;0.9498995;-0.01404599;-0.02222733;-0.3114478;1;0;0;0;0;0;0;0;0;4107;0;0;0;0;0;25269
614.1008;0.989;0.009;0.052;0.1;-0.1;0;0;0;0;0.9;-0.6;-3.5;98317;34;0;0;0;0;0.3;0;0;0.9498984;-0.01400304;-0.02225925;-0.311451;1;0;0;0;0;0;0;0;0;4105;0;0;0;0;0;53964
614.1108;0.973;0.016;0.04;0;0.1;0.1;0;0;0;0.9;-0.8;-3.8;98309;34;0;0;0;0;0.3;0;0;0.949901;-0.01400267;-0.02212984;-0.311452;1;0;0;0;0;0;0;0;0;4105;0;0;0;0;0;13744
614.1208;1.011;-0.009;0.049;-0.3;0.3;0.2;0;0;0;1.1;-0.8;-3.7;98335;34;0;0;0;0;0.2;0;0;0.9499006;-0.0137367;-0.02218453;-0.3114609;1;0;0;0;0;0;0;0;0;4105;0;0;0;0;0;58429
614.1308;0.921;-0.057;0.118;-1.2;0;0.1;0;0;0;1;-0.7;-3.6;98324;34;0;0;0;0;0.2;0;0;0.9499001;-0.01373592;-0.02218592;-0.3114628;1;0;0;0;0;0;0;0;0;4105;0;0;0;0;0;24672
614.1408;0.966;-0.142;0.115;-0.9;0;0.2;0;0;0;0.9;-1.1;-3.7;98316;34;0;0;0;0;0.2;0;0;0.9498713;-0.01213271;-0.02359614;-0.3115133;1;0;0;0;0;0;0;0;0;4105;0;0;0;0;0;25272
614.1508;1.007;-0.106;0.144;-4;3.2;-0.1;0;0;0;0.9;-0.7;-3.8;98321;34;0;0;0;0;0.2;0;0;0.949834;-0.01114761;-0.02509654;-0.3115468;1;0;0;0;0;0;0;0;0;4105;0;0;0;0;0;36360
614.1608;1.071;-0.118;0.102;-3.6;2.4;0.7;0;0;0;0.8;-0.7;-3.3;98323;34;0;0;0;0;0.2;0;0;0.9498333;-0.01114678;-0.02509795;-0.3115487;1;0;0;0;0;0;0;0;0;4105;0;0;0;0;0;60057
614.1708;3.805;0.096;0.101;0.9;4.3;0;0;0;0;3;-0.4;-3.3;98315;34;0;0;0;0;0.2;0;0;0.9498327;-0.01114596;-0.02509937;-0.3115505;1;0;0;0;0;0;0;0;0;4105;0;0;0;0;0;32517
614.1808;7.006;-0.199;0.067;3.4;2.3;4.6;0;0;0;6.9;-0.4;-5;98300;34;0;0;0;0;0.2;0;0;0.949832;-0.01114513;-0.02510079;-0.3115524;1;0;0;0;0;0;0;0;0;4105;0;0;0;0;0;25597
614.1908;5.898;0.214;0.505;11.3;-5.8;-0.8;0;0;0;6.4;-1;-3.5;98317;34;0;0;0;0;0.2;0;0;0.9498314;-0.01114431;-0.02510221;-0.3115543;2;0;0;0;0;0;0;0;0;4105;0;0;0;0;0;17692
614.2008;4.227;0.007;-0.074;5.1;-1.5;-1;0;0;0;4.2;-1.1;-4.2;98311;34;0;0;0;0;0.3;0;0;0.9498307;-0.01114348;-0.02510362;-0.3115562;2;0;0;0;0;0;0;0;0;4106;0;0;0;0;0;34323
614.2108;3.472;-0.085;-0.176;4.4;-1.9;0.5;0;0;0;3.6;-0.9;-3.5;98302;34;0;0;0;0;0.3;0.3;0.2;0.9499533;-0.01105782;-0.0249558;-0.3111969;2;0;0;0;0;0;0;0;0;4106;0;0;0;0;0;58554
614.2208;4.364;-0.077;-0.212;5.3;-0.5;3.7;0;0;0;3.9;-0.5;-4.4;98303;34;0;0;0;0;0.4;0.3;0.6;0.9501005;-0.01075102;-0.02500869;-0.310754;2;0;0;0;0;0;0;0;0;4106;0;0;0;0;0;51978
614.2308;4.743;-0.233;0.328;3.9;7;3.8;0;0;0;4.6;-1.4;-3.5;98306;34;0;0;0;0;0.4;0.3;1;0.950193;-0.01063267;-0.0256877;-0.3104196;2;0;0;0;0;0;0;0;0;4106;0;0;0;0;0;4754
614.2408;4.758;0.207;-0.013;4.1;-3.9;-0.3;0;0;0;4.6;-0.7;-4.2;98306;34;0;0;0;0;0.4;0.4;1.3;0.9503115;-0.01056144;-0.02534913;-0.3100871;2;0;0;0;0;0;0;0;0;4106;0;0;0;0;0;56005
614.2508;4.965;0.14;-0.274;10.8;-2.3;-0.5;0;0;0;4.6;-1.5;-4.3;98303;34;0;0;0;0;0.5;0.4;1.8;0.9506073;-0.01056794;-0.025138;-0.3091961;2;0;0;0;0;0;0;0;0;4106;0;0;0;0;0;41830
614.2608;5.253;-0.082;0.355;11.2;-0.7;-0.1;0;0;0;5.5;-0.8;-4;98305;34;0;0;0;0;0.5;0.4;2.2;0.9509085;-0.0105838;-0.02507141;-0.3082733;2;0;0;0;0;0;0;0;0;4106;0;0;0;0;0;29871
614.2708;5.387;-0.113;-0.382;1.5;-4.9;-0.6;0;0;0;5.2;-0.1;-2.9;98309;34;0;0;0;0;0.5;0.5;2.6;0.9509582;-0.0105043;-0.02464622;-0.3081569;2;0;0;0;0;0;0;0;0;4106;0;0;0;0;0;30292
614.2808;5.586;-0.393;-0.557;5;-1.6;4.8;0;0;0;5.2;-0.8;-3.7;98309;34;0;0;0;0;0.6;0.5;3.1;0.9510995;-0.01007539;-0.02464159;-0.3077354;2;0;0;0;0;0;0;0;0;4106;0;0;0;0;0;47402
614.2908;5.712;-0.341;0.247;5.8;-4.8;0;0;0;0;5.4;-0.6;-4.7;98300;34;0;0;0;0;0.6;0.6;3.6;0.9512637;-0.009962547;-0.0242393;-0.307263;2;0;0;0;0;0;0;0;0;4106;0;0;0;0;0;24634
614.3008;5.492;0.102;0.489;7.8;0.7;0.2;0;0;0;5.5;0.1;-4.3;98306;34;0;0;0;0;0.6;0.6;4.1;0.9514706;-0.009982959;-0.02429413;-0.3066168;2;0;0;0;0;0;0;0;0;4107;0;0;0;0;0;3736
614.3108;5.871;0.396;0.28;13.1;-4.5;0;0;0;0;5.7;-0.8;-2.8;98303;34;0;0;0;0;0.7;0.6;4.6;0.9518298;-0.009893475;-0.02390857;-0.3055336;2;0;0;0;0;0;0;0;0;4107;0;0;0;0;0;15296
614.3208;5.378;-0.486;0.217;8.8;-3.2;0.3;0;0;0;5.2;-0.2;-3.4;98298;34;0;0;0;0;0.8;0.7;5;0.9520714;-0.009801459;-0.02364648;-0.3048027;2;0;0;0;0;0;0;0;0;4107;0;0;0;0;0;32989
614.3308;6.099;-0.37;0.021;3;-6.4;-2.3;0;0;0;6.1;-1.1;-3.4;98299;34;0;0;0;0;0.8;0.8;5.6;0.9521608;-0.009826846;-0.02305299;-0.3045684;2;0;0;0;0;0;0;0;0;4107;0;0;0;0;0;30159
614.3408;6.536;-0.008;0.236;9.8;-2.1;-5;0;0;0;6.4;-0.7;-4.2;98292;34;0;0;0;0;0.9;0.8;6.2;0.9524188;-0.01020808;-0.02274171;-0.3037714;2;0;0;0;0;0;0;0;0;4107;0;0;0;0;0;600
614.3508;5.76;0.152;-0.677;8.5;-1;-2.6;0;0;0;6.3;-0.3;-3.9;98293;34;0;0;0;0;1;0.9;6.7;0.9526429;-0.010411;-0.02258376;-0.3030731;2;0;0;0;0;0;0;0;0;4107;0;0;0;0;0;61804
614.3608;5.47;-0.434;0.298;7.7;-3.2;-3.8;0;0;0;5.5;-1.2;-3.7;98291;34;0;0;0;0;1;1;7.1;0.9528491;-0.01065791;-0.02220695;-0.3024432;2;0;0;0;0;0;0;0;0;4107;0;0;0;0;0;45366
614.3708;5.895;0.129;0.017;3.7;-1.4;-7.7;0;0;0;5.9;-0.5;-3.4;98293;34;0;0;0;0;1.1;1.1;7.7;0.9529405;-0.01127093;-0.02188178;-0.3021566;2;0;0;0;0;0;0;0;0;4107;0;0;0;0;0;30450
614.3808;6.177;-0.079;0.346;6.7;-1.7;-3.1;0;0;0;6.3;-0.3;-4;98289;34;0;0;0;0;1.2;1.1;8.2;0.9531178;-0.01149243;-0.02165395;-0.301605;2;0;0;0;0;0;0;0;0;4107;0;0;0;0;0;32688
614.3908;6.478;-0.157;0.005;12.2;-7.2;-0.3;0;0;0;5.4;-0.5;-3.6;98286;34;0;0;0;0;1.3;1.2;8.8;0.953451;-0.01134764;-0.02104018;-0.3005992;2;0;0;0;0;0;0;0;0;4107;0;0;0;0;0;52977
614.4008;6.169;-0.046;0.135;19.8;-3.3;3.9;0;0;0;5.7;-0.3;-3.3;98283;34;0;0;0;0;1.4;1.3;9.4;0.9539772;-0.01097406;-0.02084755;-0.2989522;2;0;0;0;0;0;0;0;0;4103;0;0;0;0;0;60132
614.4108;6.248;-0.126;0.07;7.7;4.2;-4.9;0;0;0;5.8;-0.5;-4.8;98287;34;0;0;0;0;1.5;1.4;9.9;0.9541637;-0.01150226;-0.02106174;-0.2983215;2;0;0;0;0;0;0;0;0;4103;0;0;0;0;0;11039
614.4208;6.32;-0.192;0.093;16.5;1.2;-2.9;0;0;0;6.3;-1.2;-3.6;98290;34;0;0;0;0;1.6;1.5;10.5;0.9545878;-0.01180523;-0.02106738;-0.2969496;2;0;0;0;0;0;0;0;0;4103;0;0;0;0;0;44083
614.4308;6.474;0.021;-0.387;10.6;1.7;-6.7;0;0;0;6.1;-0.8;-4;98287;34;0;0;0;0;1.7;1.7;11;0.9548512;-0.01242483;-0.02102198;-0.2960793;2;0;0;0;0;0;0;0;0;4103;0;0;0;0;0;7936
614.4408;6.467;-0.02;-0.006;16.4;0.6;-7;0;0;0;6;-0.7;-4.4;98277;34;0;0;0;0;1.8;1.8;11.6;0.9552645;-0.01305709;-0.0208737;-0.2947261;2;0;0;0;0;0;0;0;0;4103;0;0;0;0;0;45776
614.4508;3.705;-0.569;0.075;10.4;0;-5.6;0;0;0;4.1;-1.3;-4.1;98280;34;0;0;0;0;1.9;1.9;11.8;0.9555242;-0.01353962;-0.02071753;-0.2938723;2;0;0;0;0;0;0;0;0;4103;0;0;0;0;0;42022
614.4608;6.771;1.473;-0.874;6.5;7.3;-8.1;0;0;0;6.9;0.1;-4.8;98277;34;0;0;0;0;2;2;12.4;0.9556661;-0.01441188;-0.02110839;-0.293341;2;0;0;0;0;0;0;0;0;4103;0;0;0;0;0;62395
614.4708;6.143;-0.52;0.379;8.8;-0.5;10.2;0;0;0;6.4;-0.9;-2.6;98278;34;0;0;0;0;2.1;2.1;12.9;0.9559034;-0.01355996;-0.0213178;-0.2925927;2;0;0;0;0;0;0;0;0;4103;0;0;0;0;0;560
614.4808;5.749;-2.226;1.663;31.9;8.9;7.7;0;0;0;5.6;-3.6;-0.8;98272;34;0;0;0;0;2.3;2.3;13.3;0.9567049;-0.01320828;-0.02222194;-0.2899095;2;0;0;0;0;0;0;0;0;4103;0;0;0;0;0;33182
614.4908;6.566;-0.118;-0.159;16.9;5.5;4.3;0;0;0;6.7;-0.6;-4.1;98273;34;0;0;0;0;2.4;2.4;13.9;0.9571248;-0.01302123;-0.02277184;-0.2884858;2;0;0;0;0;0;0;0;0;4103;0;0;0;0;0;62795
614.5008;6.229;0.081;0.311;14.9;-0.8;-0.8;0;0;0;6.7;-0.7;-3.5;98279;34;0;0;0;0;2.5;2.5;14.4;0.9574983;-0.01309832;-0.02266916;-0.2872484;2;0;0;0;0;0;0;0;0;4104;0;0;0;0;0;60452
614.5108;6.708;0.092;-0.63;8.6;1.8;-2.8;0;0;0;6.5;-0.4;-4;98262;34;0;0;0;0;2.6;2.7;14.9;0.9577071;-0.01339177;-0.02274085;-0.2865321;2;0;0;0;0;0;0;0;0;4104;0;0;0;0;0;28715
614.5208;6.967;-0.111;0.544;15.6;7.4;-2.9;0;0;0;6.5;-0.8;-4.1;98267;34;0;0;0;0;2.8;2.8;15.5;0.9580783;-0.01385082;-0.02326885;-0.2852241;2;0;0;0;0;0;0;0;0;4104;0;0;0;0;0;39482
614.5308;5.502;-0.908;0.532;12.6;8.3;4.4;0;0;0;6;-1;-4.6;98261;34;0;0;0;0;2.9;3;15.9;0.9583796;-0.01371771;-0.02405773;-0.2841512;2;0;0;0;0;0;0;0;0;4104;0;0;0;0;0;43545
614.5408;6.764;0.239;-0.22;-2.4;-6.7;-3.8;0;0;0;6.7;-0.4;-4;98257;34;0;0;0;0;3.1;3.1;16.4;0.9583299;-0.01385906;-0.02340446;-0.2843659;2;0;0;0;0;0;0;0;0;4104;0;0;0;0;0;62899
614.5508;7.327;-0.366;-0.734;12.3;7.4;5.8;0;0;0;7.2;-0.6;-3.6;98256;34;0;0;0;0;3.3;3.3;17;0.9586267;-0.01357929;-0.0241539;-0.2833143;2;0;0;0;0;0;0;0;0;4104;0;0;0;0;0;10544
614.5608;6.781;-0.034;-0.016;12.1;-4.6;-3.1;0;0;0;6.7;-0.8;-3.7;98262;34;0;0;0;0;3.4;3.5;17.6;0.9589317;-0.01374508;-0.02367654;-0.2823128;2;0;0;0;0;0;0;0;0;4104;0;0;0;0;0;35452
614.5708;7.013;0.053;-0.127;19.1;3.5;1.5;0;0;0;6.6;-0.5;-4.7;98254;34;0;0;0;0;3.6;3.6;18.1;0.9593941;-0.01374446;-0.02398241;-0.2807116;2;0;0;0;0;0;0;0;0;4104;0;0;0;0;0;43299
614.5808;7.054;-0.18;-0.032;22;1;-0.6;0;0;0;7.3;-0.6;-4.2;98248;34;0;0;0;0;3.8;3.8;18.7;0.9599279;-0.01386574;-0.02402811;-0.2788706;2;0;0;0;0;0;0;0;0;4104;0;0;0;0;0;27019
614.5908;6.832;0.05;-0.123;19.8;4.5;-1.1;0;0;0;7;-0.4;-2.9;98242;34;0;0;0;0;4;4;19.3;0.960396;-0.0141085;-0.02435771;-0.2772132;2;0;0;0;0;0;0;0;0;4104;0;0;0;0;0;61797
614.6008;6.805;-0.03;-0.246;20.5;1.8;-0.5;0;0;0;7.2;-0.8;-5;98250;34;0;0;0;0;4.2;4.2;19.8;0.9608862;-0.01423988;-0.02447103;-0.2754926;2;0;0;0;0;0;0;0;0;4105;0;0;0;0;0;49526
614.6108;6.917;-0.003;0.035;21.6;4.9;-0.7;0;0;0;6.4;-0.8;-3.6;98241;34;0;0;0;0;4.4;4.4;20.4;0.9613913;-0.01446679;-0.02484204;-0.2736794;2;0;0;0;0;0;0;0;0;4105;0;0;0;0;0;60842
614.6206;6.848;0.121;0.01;20.2;4;-2.2;0;0;0;7.2;-0.7;-4.1;98236;34;0;0;0;0;4.6;4.6;20.9;0.9618515;-0.01478474;-0.02509284;-0.2720175;2;0;0;0;0;0;0;0;0;4105;0;0;0;0;0;51165
614.6308;7.317;-0.061;0.016;22.4;6;-1;0;0;0;6.3;-0.7;-3.8;98230;34;0;0;0;0;4.8;4.8;21.6;0.9623744;-0.01506645;-0.02555204;-0.2701033;2;0;0;0;0;0;0;0;0;4105;0;0;0;0;0;50931
614.6408;6.802;-0.152;-0.125;21.4;5.4;-1.3;0;0;0;7.2;-0.8;-4;98234;34;0;0;0;0;5;5;22.1;0.9628636;-0.01535142;-0.02595062;-0.2682994;2;0;0;0;0;0;0;0;0;4105;0;0;0;0;0;60253
614.6508;6.9;0.037;-0.046;25.6;7.5;-2.7;0;0;0;6.9;-0.8;-3.9;98223;34;0;0;0;0;5.3;5.3;22.7;0.9634404;-0.015811;-0.02648125;-0.2661419;2;0;0;0;0;0;0;0;0;4105;0;0;0;0;0;43446
614.6608;7.095;-0.023;-0.076;25.6;6.4;-2.5;0;0;0;6.8;-0.7;-3.9;98229;34;0;0;0;0;5.5;5.5;23.3;0.9640146;-0.01622846;-0.02692834;-0.2639838;2;0;0;0;0;0;0;0;0;4105;0;0;0;0;0;29556
614.6708;7.027;0.155;-0.025;28.2;8.4;-2.6;0;0;0;7.2;-0.6;-4.2;98214;34;0;0;0;0;5.8;5.7;23.9;0.9646363;-0.01670866;-0.02753336;-0.2616098;2;0;0;0;0;0;0;0;0;4105;0;0;0;0;0;34594
614.6808;7.053;0.046;-0.047;26.8;8.6;-2.8;0;0;0;7.9;-0.9;-4.2;98227;34;0;0;0;0;6;6;24.5;0.9652191;-0.01720787;-0.02815312;-0.2593521;2;0;0;0;0;0;0;0;0;4105;0;0;0;0;0;39246
614.6908;7.292;0.02;0.049;28.2;9.5;-2.9;0;0;0;6.9;-1.1;-3.1;98208;34;0;0;0;0;6.3;6.2;25.1;0.9658266;-0.01773707;-0.02884557;-0.2569678;2;0;0;0;0;0;0;0;0;4105;0;0;0;0;0;43402
614.7008;6.936;-0.053;-0.173;29.2;10.7;-0.9;0;0;0;6.7;-0.8;-5.1;98215;34;0;0;0;0;6.5;6.5;25.7;0.9664493;-0.0181242;-0.02968211;-0.254492;2;0;0;0;0;0;0;0;0;4106;0;0;0;0;0;53474
614.7108;7.097;-0.119;-0.011;29.6;10.5;-1.6;0;0;0;7.4;-0.4;-3;98215;34;0;0;0;0;6.7;6.7;26.3;0.9670722;-0.01856648;-0.03048462;-0.251987;2;0;0;0;0;0;0;0;0;4106;0;0;0;0;0;50026
614.7208;6.619;-0.008;-0.161;31.7;10.5;-0.8;0;0;0;5.9;-1.1;-4.5;98213;34;0;0;0;0;7;7;26.9;0.967736;-0.01895093;-0.03130621;-0.2492947;2;0;0;0;0;0;0;0;0;4106;0;0;0;0;0;11927
614.7308;6.681;-0.001;-0.044;35.4;11;-0.6;0;0;0;7.3;-0.3;-3.4;98209;34;0;0;0;0;7.2;7.3;27.4;0.9684704;-0.01933827;-0.03216732;-0.2462854;2;0;0;0;0;0;0;0;0;4106;0;0;0;0;0;5953
614.7408;6.858;0.072;-0.013;37.3;15.7;-0.7;0;0;0;6.4;-0.6;-3.8;98202;34;0;0;0;0;7.5;7.5;28;0.9692208;-0.01984332;-0.03341822;-0.2431059;2;0;0;0;0;0;0;0;0;4106;0;0;0;0;0;57853
614.7508;7.123;0.014;0;37.5;15.4;-1.1;0;0;0;6.5;-0.9;-3.9;98208;34;0;0;0;0;7.8;7.8;28.6;0.9699625;-0.02037071;-0.03463145;-0.2399132;2;0;0;0;0;0;0;0;0;4106;0;0;0;0;0;54955
614.7608;7.123;-0.079;0.104;38.4;17.1;-0.5;0;0;0;7;-0.5;-3.7;98197;34;0;0;0;0;8;8.1;29.1;0.9707066;-0.0208839;-0.03600392;-0.2366354;2;0;0;0;0;0;0;0;0;4106;0;0;0;0;0;53159
614.7708;6.805;0.029;-0.014;42.2;18.5;-1;0;0;0;6.5;-1;-4.1;98194;34;0;0;0;0;8.3;8.4;29.7;0.971509;-0.021485;-0.037476;-0.2330331;2;0;0;0;0;0;0;0;0;4106;0;0;0;0;0;12674
614.7808;7.131;0.096;-0.043;42.9;19.6;-0.9;0;0;0;6.5;-0.6;-4.1;98187;34;0;0;0;0;8.6;8.7;30.3;0.9723063;-0.02209752;-0.03903801;-0.2293651;2;0;0;0;0;0;0;0;0;4106;0;0;0;0;0;38050
614.7908;6.733;-0.06;-0.056;42.9;21;-1;0;0;0;6.7;-0.7;-3.9;98178;34;0;0;0;0;8.9;9;30.8;0.9730832;-0.02274527;-0.04072254;-0.2256847;2;0;0;0;0;0;0;0;0;4106;0;0;0;0;0;6358
614.8008;7.559;0.091;-0.078;45.9;22.4;-0.9;0;0;0;7;-0.6;-3.9;98187;34;0;0;0;0;9.2;9.3;31.4;0.9738952;-0.02342328;-0.04251479;-0.2217475;2;0;0;0;0;0;0;0;0;4107;0;0;0;0;0;8514
614.8108;6.507;-0.074;0.001;45;23.1;-1;0;0;0;7;-0.9;-4.2;98183;34;0;0;0;0;9.5;9.6;32;0.9746678;-0.02411695;-0.04436621;-0.2178822;2;0;0;0;0;0;0;0;0;4107;0;0;0;0;0;39055
614.8208;6.87;-0.045;-0.174;46.8;24.1;-0.6;0;0;0;6.8;-0.7;-4.3;98180;34;0;0;0;0;9.8;9.9;32.5;0.975452;-0.02480738;-0.04630887;-0.2138541;2;0;0;0;0;0;0;0;0;4107;0;0;0;0;0;13018
614.8306;7.011;0.064;0.047;47.6;24.1;-1.5;0;0;0;7.4;-0.7;-4;98137;34;0;0;0;0;10.2;10.2;33.1;0.9762155;-0.02556306;-0.04819146;-0.2098271;2;0;0;0;0;0;0;0;0;4107;0;0;0;0;0;52093
614.8408;7.417;-0.031;-0.25;50.1;25.8;-0.9;0;0;0;7;-0.7;-4;98174;34;0;0;0;0;10.5;10.6;33.7;0.9770237;-0.02633416;-0.05029948;-0.2054294;2;0;0;0;0;0;0;0;0;4107;0;0;0;0;0;16485
614.8508;7.034;0.032;-0.152;50.1;25;-1.2;0;0;0;7;-0.8;-3.7;98168;34;0;0;0;0;10.8;10.9;34.3;0.9777967;-0.02710113;-0.05229854;-0.201107;2;0;0;0;0;0;0;0;0;4107;0;0;0;0;0;49447
614.8608;6.795;-0.015;-0.133;50.9;25.8;-0.7;0;0;0;6.9;-0.7;-4.1;98170;34;0;0;0;0;11.1;11.2;34.8;0.9785581;-0.02784895;-0.05436742;-0.1967043;2;0;0;0;0;0;0;0;0;4107;0;0;0;0;0;3521
614.8708;7.378;-0.012;-0.155;53.4;25.3;-0.8;0;0;0;6.3;-0.8;-4.3;98169;34;0;0;0;0;11.4;11.6;35.4;0.9793387;-0.02860524;-0.0563859;-0.1920888;2;0;0;0;0;0;0;0;0;4107;0;0;0;0;0;38739
614.8808;6.945;0.046;-0.144;54;25.7;-1.1;0;0;0;7.4;-0.7;-3.8;98151;34;0;0;0;0;11.7;11.9;36;0.9801011;-0.02939367;-0.05842651;-0.1874149;2;0;0;0;0;0;0;0;0;4107;0;0;0;0;0;53819
614.8908;6.908;0.014;-0.085;56.2;25.7;0;0;0;0;7.3;-0.7;-3.5;98153;34;0;0;0;0;12.1;12.3;36.5;0.9808742;-0.03009653;-0.06047822;-0.1825444;2;0;0;0;0;0;0;0;0;4107;0;0;0;0;0;12817
614.9008;7.679;-0.076;-0.205;55.5;24.5;-0.7;0;0;0;7.3;-1.1;-3.9;98156;34;0;0;0;0;12.4;12.6;37.1;0.9816126;-0.0308358;-0.06241703;-0.1777353;2;0;0;0;0;0;0;0;0;4110;0;0;0;0;0;50630
614.9108;6.709;0.064;0.009;57.8;23.4;-0.8;0;0;0;6.7;-0.7;-3.9;98149;34;0;0;0;0;12.7;13;37.6;0.9823655;-0.03158178;-0.06424955;-0.1727212;2;0;0;0;0;0;0;0;0;4110;0;0;0;0;0;60496
614.9208;7.248;0.143;-0.174;58.1;23.4;-0.3;0;0;0;7.6;-0.6;-4;98154;34;0;0;0;0;13;13.3;38.2;0.9830933;-0.03228704;-0.06609295;-0.1676809;2;0;0;0;0;0;0;0;0;4110;0;0;0;0;0;39757
614.9308;6.419;-0.001;-0.1;59;21.3;2.1;0;0;0;6.3;-0.6;-3.7;98135;34;0;0;0;0;13.3;13.7;38.6;0.9838248;-0.03276208;-0.06778629;-0.1625437;2;0;0;0;0;0;0;0;0;4110;0;0;0;0;0;55826
614.9408;7.556;0.03;-0.102;60.1;20.8;2.5;0;0;0;7.7;-1.2;-4;98144;34;0;0;0;0;13.6;14.1;39.2;0.9845454;-0.03319932;-0.06943844;-0.1573104;2;0;0;0;0;0;0;0;0;4110;0;0;0;0;0;37379
614.9508;7.031;0.08;-0.174;60.9;18.2;4.4;0;0;0;6.8;-0.9;-3.8;98145;34;0;0;0;0;13.9;14.4;39.7;0.9852687;-0.03344173;-0.07088344;-0.1519963;2;0;0;0;0;0;0;0;0;4110;0;0;0;0;0;46065
614.9608;6.768;0.05;-0.078;61.6;15.6;5.6;0;0;0;7.2;-0.7;-3.9;98132;34;0;0;0;0;14.2;14.8;40.2;0.9859896;-0.03354432;-0.07211842;-0.146623;2;0;0;0;0;0;0;0;0;4110;0;0;0;0;0;60504
614.9708;7.252;0.157;-0.062;63.7;14.8;6.6;0;0;0;6.5;-0.5;-4.3;98134;34;0;0;0;0;14.5;15.2;40.8;0.9867136;-0.03356487;-0.07329123;-0.1410605;2;0;0;0;0;0;0;0;0;4110;0;0;0;0;0;36009
614.9808;7.449;0.005;-0.104;63.9;12.6;8.6;0;0;0;6.3;-1.2;-4.2;98141;34;0;0;0;0;14.8;15.5;41.3;0.9874287;-0.03338978;-0.07429208;-0.1354633;2;0;0;0;0;0;0;0;0;4110;0;0;0;0;0;17836
614.9908;6.917;0.094;-0.01;65.6;10.5;8.6;0;0;0;7.5;-0.6;-4.2;98133;34;0;0;0;0;15.1;15.9;41.8;0.9881437;-0.03320046;-0.07511061;-0.1297227;2;0;0;0;0;0;0;0;0;4110;0;0;0;0;0;18198
615.0008;6.73;-0.061;-0.207;68.6;8.9;10;0;0;0;7.2;-0.5;-3.8;98125;34;0;0;0;0;15.4;16.3;42.2;0.9888722;-0.03288345;-0.07578973;-0.1237193;2;0;0;0;0;0;0;0;0;4110;0;0;0;0;0;58429
615.0108;7.065;0.043;-0.159;68.2;7.4;10.5;0;0;0;6.8;-0.8;-3.9;98123;34;0;0;0;0;15.7;16.7;42.7;0.9895714;-0.03250476;-0.07634549;-0.1177424;2;0;0;0;0;0;0;0;0;4110;0;0;0;0;0;7691
615.0208;6.879;0.076;0.009;68.6;4.7;9.5;0;0;0;6.5;-0.6;-3.9;98118;34;0;0;0;0;16;17.1;43.2;0.9902534;-0.03218379;-0.07665164;-0.1117452;2;0;0;0;0;0;0;0;0;4110;0;0;0;0;0;6110
615.0308;6.726;0.083;-0.284;72;3.5;10.6;0;0;0;6.8;-0.7;-3.8;98114;34;0;0;0;0;16.4;17.4;43.6;0.9909411;-0.03178286;-0.07685865;-0.1054435;2;0;0;0;0;0;0;0;0;4110;0;0;0;0;0;16921
615.0406;7.589;0.088;-0.305;73.8;2.8;11.9;0;0;0;7.8;-0.6;-3.8;98116;34;0;0;0;0;16.7;17.8;44.1;0.9916015;-0.0312859;-0.07699989;-0.09909021;2;0;0;0;0;0;0;0;0;4110;0;0;0;0;0;52878
615.0508;7.345;0.155;-0.056;73.5;0.6;10.2;0;0;0;7.3;-0.6;-3.8;98109;34;0;0;0;0;17;18.2;44.6;0.9922506;-0.03088971;-0.07693863;-0.09254762;2;0;0;0;0;0;0;0;0;4110;0;0;0;0;0;54755
615.0608;6.611;0.043;-0.311;74.4;-0.9;9.6;0;0;0;6.4;-0.6;-4.5;98108;34;0;0;0;0;17.3;18.6;45.1;0.9928615;-0.03054799;-0.07674035;-0.08604617;2;0;0;0;0;0;0;0;0;4110;0;0;0;0;0;21216
615.0708;7.024;0.087;-0.066;75.2;-1.1;9.3;0;0;0;7.3;-0.6;-3.8;98103;34;0;0;0;0;17.6;19;45.5;0.9934368;-0.03023273;-0.07651014;-0.07947084;2;0;0;0;0;0;0;0;0;4110;0;0;0;0;0;30555
615.0808;7.678;0.271;-0.07;79.4;-3.2;8.4;0;0;0;7;-0.7;-4.2;98092;34;0;0;0;0;17.9;19.4;46;0.9940069;-0.03000844;-0.07607696;-0.07253936;2;0;0;0;0;0;0;0;0;4110;0;0;0;0;0;2973
615.0908;6.954;0.024;-0.108;77.4;-4.2;7;0;0;0;7.4;-0.9;-4.2;98104;34;0;0;0;0;18.2;19.8;46.5;0.9945201;-0.02988449;-0.07555164;-0.0657924;2;0;0;0;0;0;0;0;0;4110;0;0;0;0;0;33071
615.1008;7.641;0.09;-0.194;80.4;-4;7.8;0;0;0;7;-1;-4.2;98098;34;0;0;0;0;18.5;20.1;47;0.9950035;-0.02971334;-0.07503748;-0.05877544;2;0;0;0;0;0;0;0;0;4110;0;0;0;0;0;40383
615.1108;6.326;0.069;-0.163;80.7;-6;5.9;0;0;0;7.1;-0.3;-3.7;98092;34;0;0;0;0;18.8;20.5;47.3;0.9954474;-0.02969669;-0.07433271;-0.05174279;2;0;0;0;0;0;0;0;0;4110;0;0;0;0;0;57654
615.1208;7.114;0.137;-0.07;84.6;-5;5.2;0;0;0;6.9;-0.7;-4.1;98078;34;0;0;0;0;19.1;20.9;47.8;0.9958478;-0.029769;-0.07370212;-0.04437483;2;0;0;0;0;0;0;0;0;4110;0;0;0;0;0;44289
615.1308;7.041;-0.025;-0.224;82.9;-6.4;4.4;0;0;0;6.6;-0.4;-4.2;98074;34;0;0;0;0;19.5;21.3;48.2;0.9961949;-0.02989647;-0.07294701;-0.0371595;2;0;0;0;0;0;0;0;0;4110;0;0;0;0;0;6117
615.1408;7.507;0.157;-0.141;87.1;-4.9;3.1;0;0;0;7.6;-0.7;-4;98075;34;0;0;0;0;19.8;21.7;48.7;0.9964873;-0.03016356;-0.07230669;-0.02958103;2;0;0;0;0;0;0;0;0;4110;0;0;0;0;0;30708
615.1508;6.962;0.135;-0.101;87.9;-5.7;1.3;0;0;0;6.8;-0.8;-3.9;98058;34;0;0;0;0;20.2;22.1;49.1;0.996724;-0.03058983;-0.07158237;-0.02194756;2;0;0;0;0;0;0;0;0;4110;0;0;0;0;0;54672
615.1608;6.509;0.088;-0.033;87.4;-4.4;0.7;0;0;0;6.3;-0.3;-4.2;98063;34;0;0;0;0;20.6;22.5;49.5;0.9968917;-0.03106846;-0.07096354;-0.014356;2;0;0;0;0;0;0;0;0;4110;0;0;0;0;0;29315
615.1708;7.832;0.124;-0.066;90.6;-3.9;0.9;0;0;0;7.5;-0.8;-3.4;98055;34;0;0;0;0;20.9;23;50;0.9970002;-0.03154757;-0.07038067;-0.006480654;2;0;0;0;0;0;0;0;0;4110;0;0;0;0;0;12479
615.1808;7.133;-0.04;-0.035;90.6;-3.7;-0.7;0;0;0;7.5;-0.6;-3.8;98053;34;0;0;0;0;21.3;23.4;50.5;0.997041;-0.03216487;-0.06980467;0.001385598;2;0;0;0;0;0;0;0;0;4110;0;0;0;0;0;49901
615.1908;7.377;0.138;-0.255;93.5;-2.2;-1.4;0;0;0;7;-0.7;-4.2;98051;34;0;0;0;0;21.6;23.8;51;0.9970061;-0.03285263;-0.06934997;0.009508024;2;0;0;0;0;0;0;0;0;4110;0;0;0;0;0;31076
615.2008;7.322;-0.02;-0.12;93.6;-3;-2.3;0;0;0;6.3;-0.6;-3.6;98045;34;0;0;0;0;22;24.2;51.4;0.9969064;-0.03361842;-0.06882421;0.01762819;2;0;0;0;0;0;0;0;0;4110;0;0;0;0;0;59036
615.2108;6.791;0.358;0.089;95.4;-1.1;-5.5;0;0;0;7.7;-0.4;-4.1;98043;34;0;0;0;0;22.4;24.6;51.8;0.9967153;-0.03466965;-0.06845799;0.02588559;2;0;0;0;0;0;0;0;0;4110;0;0;0;0;0;22353
615.2208;7.367;0.017;-0.264;96.6;-0.8;-4;0;0;0;6.3;-0.8;-4;98036;34;0;0;0;0;22.7;25.1;52.3;0.9964544;-0.03559706;-0.0681044;0.03425429;2;0;0;0;0;0;0;0;0;4110;0;0;0;0;0;22432
615.2308;7.088;0.088;-0.066;98.8;-0.1;-5.4;0;0;0;7;-0.4;-4.2;98038;34;0;0;0;0;23.1;25.5;52.7;0.9961057;-0.03665483;-0.06780396;0.04280912;2;0;0;0;0;0;0;0;0;4110;0;0;0;0;0;9980
615.2408;7.207;0.082;-0.1;99.1;0.3;-5.2;0;0;0;7.1;-0.5;-4.1;98028;34;0;0;0;0;23.5;25.9;53.2;0.9956797;-0.0376917;-0.06753327;0.05138768;2;0;0;0;0;0;0;0;0;4110;0;0;0;0;0;42535
615.2506;6.177;0.162;-0.124;100.4;1.7;-7.3;0;0;0;8;-0.6;-4.2;98027;34;0;0;0;0;23.8;26.3;53.5;0.9951676;-0.03888216;-0.06738058;0.05991404;2;0;0;0;0;0;0;0;0;4110;0;0;0;0;0;9225
615.2608;7.044;0.276;-0.17;102;2.2;-7.7;0;0;0;6.6;-0.5;-3.9;98016;34;0;0;0;0;24.2;26.8;54;0.9945435;-0.04016313;-0.06726345;0.06888949;2;0;0;0;0;0;0;0;0;4110;0;0;0;0;0;22273
615.2708;6.328;-0.052;-0.012;102.1;1.5;-5.6;0;0;0;6.3;-0.4;-4;98001;34;0;0;0;0;24.7;27.2;54.3;0.9938617;-0.04124059;-0.06706939;0.07771667;2;0;0;0;0;0;0;0;0;4110;0;0;0;0;0;16190
615.2808;7.441;0.252;-0.229;105.9;3.4;-6.9;0;0;0;7.2;-0.8;-4.2;98003;34;0;0;0;0;25.1;27.7;54.8;0.993056;-0.04243362;-0.06702837;0.08687072;2;0;0;0;0;0;0;0;0;4110;0;0;0;0;0;36703
615.2908;6.702;-0.077;-0.01;104.7;3.3;-4.7;0;0;0;6.4;-0.4;-3.7;98004;34;0;0;0;0;25.5;28.1;55.2;0.9921836;-0.04342252;-0.06696302;0.09592712;2;0;0;0;0;0;0;0;0;4110;0;0;0;0;0;20359
615.3008;7.401;0.076;-0.151;106.8;4.4;-4.9;0;0;0;6.8;-0.5;-4.2;97997;34;0;0;0;0;25.9;28.6;55.7;0.9912018;-0.04443543;-0.06697726;0.1051595;2;0;0;0;0;0;0;0;0;4110;0;0;0;0;0;24259
615.3108;5.754;-0.107;0.055;104.8;3.6;-4.1;0;0;0;6.8;-0.7;-3.9;97999;34;0;0;0;0;26.3;29;56;0.9901615;-0.04536708;-0.06691932;0.1142092;2;0;0;0;0;0;0;0;0;4110;0;0;0;0;0;1759
615.3208;7.526;0.295;-0.268;109.2;2.3;-4.7;0;0;0;6.5;-0.5;-4.3;97982;34;0;0;0;0;26.7;29.5;56.4;0.9889971;-0.04638175;-0.06672902;0.1236153;2;0;0;0;0;0;0;0;0;4110;0;0;0;0;0;38853
615.3308;6.871;0.113;0.067;110.8;3.4;-2.8;0;0;0;7.1;-0.2;-3.7;97988;34;0;0;0;0;27.1;30;56.9;0.9877244;-0.04722672;-0.06660202;0.1331706;2;0;0;0;0;0;0;0;0;4110;0;0;0;0;0;51025
615.3408;7.387;0.118;-0.337;111.5;3.4;-2.6;0;0;0;6;-0.8;-4;97984;34;0;0;0;0;27.5;30.4;57.3;0.9863511;-0.04805925;-0.06646425;0.1427745;2;0;0;0;0;0;0;0;0;4110;0;0;0;0;0;48815
615.3508;6.747;0.135;0.064;112.9;4;-1.5;0;0;0;7.3;-0.4;-3.8;97971;34;0;0;0;0;27.9;30.9;57.7;0.9848666;-0.04879104;-0.06635449;0.1524942;2;0;0;0;0;0;0;0;0;4110;0;0;0;0;0;45888
615.3608;7.074;0.343;-0.03;114.3;2.6;-2.1;0;0;0;7.1;-1.2;-4.4;97974;34;0;0;0;0;28.3;31.4;58.2;0.9832719;-0.0495989;-0.0661203;0.1623097;2;0;0;0;0;0;0;0;0;4110;0;0;0;0;0;53002
615.3708;7.152;0.216;-0.103;115.1;3.7;-1;0;0;0;7;-0.8;-3.6;97962;34;0;0;0;0;28.8;31.8;58.6;0.981567;-0.05028925;-0.0659494;0.1721864;2;0;0;0;0;0;0;0;0;4110;0;0;0;0;0;39998
615.3808;7.339;0.077;-0.054;115.9;3.4;0.6;0;0;0;6.4;-0.5;-3.7;97952;34;0;0;0;0;29.2;32.3;59.1;0.979759;-0.05085122;-0.06572128;0.1821191;2;0;0;0;0;0;0;0;0;4110;0;0;0;0;0;58861
615.3908;5.91;0.036;-0.104;115.9;3.1;0.2;0;0;0;5.4;-0.6;-4;97960;34;0;0;0;0;29.6;32.8;59.4;0.9778493;-0.05144875;-0.06546886;0.1920355;2;0;0;0;0;0;0;0;0;4110;0;0;0;0;0;32701
615.4008;7.081;-0.06;-0.282;117.1;2.2;1.7;0;0;0;6.9;-1.1;-4;97940;34;0;0;0;0;30.1;33.3;59.8;0.9758319;-0.05193119;-0.06510119;0.2020324;2;0;0;0;0;0;0;0;0;4110;0;0;0;0;0;5202
615.4108;6.622;-0.062;0.066;115.9;2.2;2.7;0;0;0;6.3;-0.5;-4.1;97939;34;0;0;0;0;30.5;33.8;60.2;0.9737378;-0.05231846;-0.06471459;0.2119185;2;0;0;0;0;0;0;0;0;4110;0;0;0;0;0;20653
615.4208;6.478;0.308;-0.085;118.5;0.6;-0.1;0;0;0;6.8;-0.5;-4.2;97938;34;0;0;0;0;31;34.3;60.6;0.9714902;-0.05298256;-0.06422436;0.2219794;2;0;0;0;0;0;0;0;0;4110;0;0;0;0;0;4052
615.4308;6.32;-0.014;-0.083;120.5;1.3;1.6;0;0;0;7;-0.6;-3.6;97930;34;0;0;0;0;31.4;34.8;61;0.9691029;-0.05349591;-0.0637449;0.2321949;2;0;0;0;0;0;0;0;0;4110;0;0;0;0;0;48270
615.4408;6.559;0.095;-0.022;120.4;1;2;0;0;0;6.4;-0.8;-3.4;97921;34;0;0;0;0;31.9;35.3;61.4;0.9666137;-0.05397453;-0.06322061;0.2423795;2;0;0;0;0;0;0;0;0;4110;0;0;0;0;0;45959
615.4508;7.262;0.266;-0.199;123.3;1.4;0.9;0;0;0;6.4;-0.4;-3.6;97923;34;0;0;0;0;32.4;35.8;61.8;0.9639471;-0.05454846;-0.06273476;0.2527747;2;0;0;0;0;0;0;0;0;4110;0;0;0;0;0;44452
615.4606;7.747;-0.036;-0.101;123.2;3.3;3;0;0;0;6.5;-0.9;-4;97911;34;0;0;0;0;32.9;36.3;62.3;0.9612209;-0.05488385;-0.06236582;0.2629693;2;0;0;0;0;0;0;0;0;4110;0;0;0;0;0;54761
615.4708;7.695;0.122;-0.333;125.6;-0.9;1.5;0;0;0;6.3;-1.2;-4;97902;34;0;0;0;0;33.3;36.8;62.8;0.9582399;-0.05546937;-0.06163563;0.2736798;2;0;0;0;0;0;0;0;0;4110;0;0;0;0;0;4663
615.4808;6.77;0.185;-0.121;125.1;2.8;1.5;0;0;0;6.9;-0.4;-4.2;97894;34;0;0;0;0;33.9;37.3;63.3;0.9551877;-0.0559466;-0.0612235;0.2841449;2;0;0;0;0;0;0;0;0;4110;0;0;0;0;0;16575
615.4908;7.757;0.379;-0.223;126.9;1.3;-0.2;0;0;0;5.6;-0.9;-3.8;97874;34;0;0;0;0;34.4;37.8;63.8;0.9519761;-0.05660288;-0.06071455;0.2947053;2;0;0;0;0;0;0;0;0;4110;0;0;0;0;0;32859
615.5008;6.756;0.241;0.165;127;3.3;0.7;0;0;0;7;-1.1;-3.7;97889;34;0;0;0;0;34.9;38.4;64.2;0.9486381;-0.05713279;-0.06033869;0.3052554;2;0;0;0;0;0;0;0;0;4110;0;0;0;0;0;29520
615.5108;6.627;0.136;-0.122;129.9;1;2;0;0;0;6.8;-0.8;-4.2;97884;34;0;0;0;0;35.4;38.9;64.6;0.9451233;-0.05762207;-0.05971429;0.3160001;2;0;0;0;0;0;0;0;0;4110;0;0;0;0;0;29393
615.5208;6.602;0.077;-0.142;130;3;1.8;0;0;0;6.5;-0.5;-4.1;97857;34;0;0;0;0;36;39.5;65;0.9414715;-0.05806023;-0.05925278;0.3267252;2;0;0;0;0;0;0;0;0;4110;0;0;0;0;0;26281
615.5308;6.816;0.32;-0.004;129.4;1.9;-2.4;0;0;0;6.7;-0.9;-3.9;97871;34;0;0;0;0;36.5;40;65.5;0.9377015;-0.05887042;-0.0588166;0.337329;2;0;0;0;0;0;0;0;0;4110;0;0;0;0;0;17336
615.5408;6.709;0.078;-0.037;130.8;3.3;-2.1;0;0;0;7.3;-0.5;-3.8;97857;34;0;0;0;0;37;40.5;65.9;0.9337636;-0.05961609;-0.05847197;0.3480125;2;0;0;0;0;0;0;0;0;4110;0;0;0;0;0;17205
615.5508;6.488;0.265;-0.096;133.9;1.7;-4.5;0;0;0;6.2;-0.4;-4.2;97852;34;0;0;0;0;37.6;41.1;66.3;0.9296014;-0.06060698;-0.05804209;0.3588859;2;0;0;0;0;0;0;0;0;4110;0;0;0;0;0;14157
615.5608;7.277;0.096;0.014;135.1;0.7;-4;0;0;0;6.8;-0.7;-3.8;97834;34;0;0;0;0;38.2;41.7;66.8;0.9252838;-0.06158613;-0.05750347;0.369798;2;0;0;0;0;0;0;0;0;4110;0;0;0;0;0;35870
615.5708;6.484;0.013;-0.2;136.7;-1.1;-5.2;0;0;0;6.9;-0.6;-3.9;97849;34;0;0;0;0;38.7;42.2;67.2;0.9207863;-0.06271724;-0.0568452;0.3807727;2;0;0;0;0;0;0;0;0;4110;0;0;0;0;0;40529
615.5808;7.335;0.305;-0.029;137.4;-2.4;-6.9;0;0;0;6.5;-0.5;-3.8;97836;34;0;0;0;0;39.2;42.8;67.7;0.9161307;-0.06402764;-0.05612624;0.3917331;2;0;0;0;0;0;0;0;0;4110;0;0;0;0;0;46644
615.5908;5.723;-0.001;-0.321;138.8;-2.5;-5.8;0;0;0;6.6;-0.5;-3.6;97818;34;0;0;0;0;39.8;43.4;68;0.9112982;-0.06524879;-0.05534702;0.4027591;2;0;0;0;0;0;0;0;0;4110;0;0;0;0;0;45545
615.6008;7.451;0.43;-0.102;142.7;0.3;-6.3;0;0;0;6;-0.5;-4.4;97812;34;0;0;0;0;40.4;43.9;68.5;0.9061767;-0.06642167;-0.05477183;0.4140436;2;0;0;0;0;0;0;0;0;4108;0;0;0;0;0;1864
615.6108;6.429;0.083;-0.048;143.8;-1.8;-5;0;0;0;6.3;-0.7;-4;97810;34;0;0;0;0;41;44.5;68.9;0.9008899;-0.06756323;-0.05397554;0.425346;2;0;0;0;0;0;0;0;0;4108;0;0;0;0;0;57622
615.6208;6.198;-0.007;-0.164;143.2;-2.1;-6.1;0;0;0;7.5;-0.5;-3.7;97802;34;0;0;0;0;41.6;45.1;69.3;0.8954775;-0.06878447;-0.05319104;0.436531;2;0;0;0;0;0;0;0;0;4108;0;0;0;0;0;24264
615.6308;6.547;0.108;-0.021;143.8;-3.7;-7.3;0;0;0;6.7;-0.6;-3.7;97805;34;0;0;0;0;42.1;45.7;69.7;0.8899038;-0.07015448;-0.05230886;0.4476756;2;0;0;0;0;0;0;0;0;4108;0;0;0;0;0;9986
615.6408;5.656;0.079;-0.048;145.7;-4.2;-6.6;0;0;0;5.5;-0.6;-4.1;97788;34;0;0;0;0;42.7;46.3;70;0.8841195;-0.07148937;-0.05134953;0.4588955;2;0;0;0;0;0;0;0;0;4108;0;0;0;0;0;57163
615.6508;6.893;0.149;-0.172;149.1;0.4;-5.1;0;0;0;6.1;-0.7;-4.2;97786;34;0;0;0;0;43.3;46.9;70.5;0.8780435;-0.07252647;-0.05065008;0.4703339;2;0;0;0;0;0;0;0;0;4108;0;0;0;0;0;3870
615.6608;6.67;0.016;-0.018;149.8;-1.1;-4.7;0;0;0;6.5;-0.9;-4.2;97774;34;0;0;0;0;43.9;47.5;70.9;0.871796;-0.07358566;-0.04980192;0.4817434;2;0;0;0;0;0;0;0;0;4108;0;0;0;0;0;52627
615.6706;6.972;0.18;0.097;153.4;0.8;-2.1;0;0;0;6.6;-0.7;-3.6;97786;34;0;0;0;0;44.5;48.1;71.4;0.8653726;-0.07435932;-0.04898042;0.4931552;2;0;0;0;0;0;0;0;0;4108;0;0;0;0;0;6387
615.6808;5.614;0.102;-0.217;154;0.5;-2;0;0;0;6;-1;-4.1;97767;34;0;0;0;0;45.1;48.7;71.7;0.8585297;-0.07515196;-0.04808803;0.5049421;2;0;0;0;0;0;0;0;0;4108;0;0;0;0;0;55710
615.6908;7.1;0.234;0.058;157.9;2.2;-1.4;0;0;0;5.6;-0.9;-4.2;97748;34;0;0;0;0;45.7;49.4;72.2;0.8514718;-0.07581176;-0.04727481;0.5167335;2;0;0;0;0;0;0;0;0;4108;0;0;0;0;0;8934
615.7008;6.604;0.202;0.02;162.2;3.8;0;0;0;0;6.9;-0.9;-4.3;97761;34;0;0;0;0;46.3;50;72.6;0.8440573;-0.07630296;-0.04648377;0.5287575;2;0;0;0;0;0;0;0;0;4106;0;0;0;0;0;23364
615.7108;6.82;0.199;-0.101;164.9;3.9;-1.3;0;0;0;5.8;-0.9;-3.9;97744;34;0;0;0;0;46.9;50.6;73.1;0.8363361;-0.07687926;-0.04572838;0.54087;2;0;0;0;0;0;0;0;0;4106;0;0;0;0;0;2528
615.7208;5.351;-0.151;-0.041;162.8;6.2;0.5;0;0;0;7.1;-0.8;-3.9;97738;34;0;0;0;0;47.5;51.2;73.4;0.8285493;-0.07718934;-0.04506087;0.5527363;2;0;0;0;0;0;0;0;0;4106;0;0;0;0;0;29726
615.7308;6.114;0.335;-0.15;167.7;6.8;-2.8;0;0;0;6.1;-0.8;-4.1;97727;34;0;0;0;0;48.2;51.9;73.8;0.820329;-0.07771008;-0.04455521;0.564833;2;0;0;0;0;0;0;0;0;4106;0;0;0;0;0;64117
615.7408;7.445;0.157;-0.03;167.2;7.5;-1.6;0;0;0;5.6;-0.4;-4.2;97731;34;0;0;0;0;48.7;52.5;74.3;0.8119628;-0.07809263;-0.04403479;0.5767833;2;0;0;0;0;0;0;0;0;4106;0;0;0;0;0;46128
615.7508;6;0.117;-0.047;165.2;3.8;-3;0;0;0;5.8;-0.5;-4;97735;34;0;0;0;0;49.3;53.2;74.7;0.8035292;-0.07874061;-0.0433211;0.588442;2;0;0;0;0;0;0;0;0;4106;0;0;0;0;0;26761
615.7608;5.472;-0.065;-0.47;168.5;5.1;-1.8;0;0;0;5.2;-0.8;-4.6;97713;34;0;0;0;0;49.9;53.8;75;0.7947594;-0.0792326;-0.04260777;0.6002202;2;0;0;0;0;0;0;0;0;4106;0;0;0;0;0;20354
615.7708;6.211;0.28;-0.193;167.7;1.2;-5.1;0;0;0;6.5;-0.5;-4.1;97710;34;0;0;0;0;50.5;54.5;75.4;0.7858543;-0.08013788;-0.04179153;0.6117716;2;0;0;0;0;0;0;0;0;4106;0;0;0;0;0;28289
615.7808;6.521;0.03;-0.114;167.6;-0.1;-2.3;0;0;0;6.1;-0.3;-4;97690;34;0;0;0;0;51.2;55.1;75.8;0.7768089;-0.080901;-0.04073097;0.6231886;2;0;0;0;0;0;0;0;0;4106;0;0;0;0;0;22813
615.7908;6.004;0.147;-0.263;166.1;-1.1;-6.4;0;0;0;6.5;-0.6;-4.5;97680;34;0;0;0;0;51.9;55.8;76.2;0.7676531;-0.08197878;-0.03982555;0.6343517;2;0;0;0;0;0;0;0;0;4106;0;0;0;0;0;62936
615.8008;7.384;0.215;0.144;169.8;-4;-5.4;0;0;0;7.3;-0.7;-3.9;97670;34;0;0;0;0;52.6;56.4;76.7;0.7581483;-0.08314008;-0.03863518;0.6456053;2;0;0;0;0;0;0;0;0;4107;0;0;0;0;0;61788
615.8108;6.499;-0.158;-0.116;168.4;-5.8;-5.2;0;0;0;6;-1;-4;97684;34;0;0;0;0;53.2;57.1;77.2;0.7485602;-0.08437204;-0.03731773;0.6566173;2;0;0;0;0;0;0;0;0;4107;0;0;0;0;0;13778
615.8208;6.347;0.206;-0.009;167.3;-6.9;-9.6;0;0;0;7.3;-0.5;-3.8;97670;34;0;0;0;0;53.8;57.8;77.6;0.7388502;-0.08593019;-0.0361851;0.6673883;2;0;0;0;0;0;0;0;0;4107;0;0;0;0;0;50331
615.8308;6.676;0.116;0.327;171.7;-7;-5.4;0;0;0;6.7;-0.8;-4.2;97658;34;0;0;0;0;54.5;58.5;78;0.7287495;-0.08721647;-0.03475326;0.6783139;2;0;0;0;0;0;0;0;0;4107;0;0;0;0;0;142
615.8408;7.209;-0.049;-0.045;168.4;-10.5;-7.2;0;0;0;6.7;-0.5;-3.8;97654;34;0;0;0;0;55.1;59.1;78.5;0.7186831;-0.08879203;-0.0332289;0.6888442;2;0;0;0;0;0;0;0;0;4107;0;0;0;0;0;52366
615.8508;5.58;-0.159;-0.434;174.5;-9.7;-3.8;0;0;0;7;-0.5;-3.9;97652;34;0;0;0;0;55.7;59.8;78.9;0.7081087;-0.09010848;-0.0314957;0.6996216;2;0;0;0;0;0;0;0;0;4107;0;0;0;0;0;25915
615.8608;5.715;0.195;0.007;176.6;-9.8;-4.5;0;0;0;6.8;-0.2;-3.9;97651;34;0;0;0;0;56.4;60.5;79.2;0.6972348;-0.09145696;-0.02976838;0.7103611;2;0;0;0;0;0;0;0;0;4107;0;0;0;0;0;27454
615.8708;6.7;0.119;-0.149;178.9;-10.4;-1.6;0;0;0;6.7;-0.6;-3.8;97647;34;0;0;0;0;57;61.2;79.7;0.6860783;-0.09264928;-0.02780404;0.7210685;2;0;0;0;0;0;0;0;0;4107;0;0;0;0;0;19281
615.8806;5.972;-0.016;-0.102;178.2;-8.5;1.6;0;0;0;5.8;-0.4;-4.4;97662;34;0;0;0;0;57.5;61.9;80;0.6750197;-0.09349062;-0.02578562;0.7313979;2;0;0;0;0;0;0;0;0;4107;0;0;0;0;0;52646
615.8908;5.983;0.068;-0.106;181.3;-7.7;2.7;0;0;0;6;-0.7;-4;97621;34;0;0;0;0;58.1;62.6;80.4;0.6631933;-0.09422883;-0.02364334;0.7421163;2;0;0;0;0;0;0;0;0;4107;0;0;0;0;0;38839
615.9008;6.3;0.081;-0.12;182.5;-6.5;4;0;0;0;6.3;-0.6;-4.3;97617;34;0;0;0;0;58.8;63.3;80.8;0.6513384;-0.09477845;-0.02150586;0.7525376;2;0;0;0;0;0;0;0;0;4107;0;0;0;0;0;1979
615.9108;6.071;0.062;-0.183;181.9;-4.4;3.1;0;0;0;5.9;-0.9;-4.2;97605;34;0;0;0;0;59.4;64;81.2;0.6393487;-0.09522132;-0.01954327;0.7627478;2;0;0;0;0;0;0;0;0;4107;0;0;0;0;0;61182
615.9208;5.871;0.309;-0.201;184.5;-0.4;1;0;0;0;5.6;-0.5;-3.8;97612;34;0;0;0;0;60.1;64.7;81.6;0.6269943;-0.09549133;-0.01791985;0.7729415;2;0;0;0;0;0;0;0;0;4107;0;0;0;0;0;56734
615.9308;6.286;0.061;0.032;189.7;-0.9;3.2;0;0;0;5.7;-0.4;-3.7;97601;34;0;0;0;0;60.7;65.4;82;0.6141429;-0.09565918;-0.01606679;0.7832111;2;0;0;0;0;0;0;0;0;4107;0;0;0;0;0;709
615.9408;5.663;0.071;-0.183;189.4;2.3;-1.9;0;0;0;6;-1;-3.6;97571;34;0;0;0;0;61.4;66.1;82.3;0.6010954;-0.09585425;-0.01473343;0.7932712;2;0;0;0;0;0;0;0;0;4107;0;0;0;0;0;49160
615.9508;7.429;0.225;0.152;192.5;-0.3;-2.3;0;0;0;4.8;-0.8;-4.2;97569;34;0;0;0;0;62.1;66.8;82.8;0.5876726;-0.09622786;-0.01326405;0.8032467;2;0;0;0;0;0;0;0;0;4107;0;0;0;0;0;30161
615.9608;5.449;0.192;-0.036;193.1;1.4;-5.2;0;0;0;6.6;-0.6;-3.6;97566;34;0;0;0;0;62.8;67.5;83.2;0.5740131;-0.09659948;-0.0120765;0.8130384;2;0;0;0;0;0;0;0;0;4107;0;0;0;0;0;10824
615.9708;5.749;0.079;-0.109;195;-1.4;-1.7;0;0;0;6.5;0;-4.5;97560;34;0;0;0;0;63.4;68.3;83.5;0.5600877;-0.09697372;-0.01047753;0.8226714;2;0;0;0;0;0;0;0;0;4107;0;0;0;0;0;30948
615.9808;5.91;0.119;0.017;195.3;1.6;-2.7;0;0;0;6.1;-0.8;-4.2;97558;34;0;0;0;0;64.1;69;83.9;0.5459681;-0.09715535;-0.009095624;0.8321039;2;0;0;0;0;0;0;0;0;4107;0;0;0;0;0;20483
615.9908;6.462;0.16;-0.047;196;-0.2;-4;0;0;0;6.4;-0.9;-3.7;97543;34;0;0;0;0;64.8;69.7;84.3;0.5316237;-0.09750478;-0.007714403;0.8413142;2;0;0;0;0;0;0;0;0;4107;0;0;0;0;0;49189
616.0008;4.945;-0.159;-0.179;192.8;-0.5;-1.2;0;0;0;5.2;-0.4;-4.2;97539;34;0;0;0;0;65.5;70.4;84.6;0.5173867;-0.09771465;-0.006139818;0.8501325;2;0;0;0;0;0;0;0;0;4107;0;0;0;0;0;37859
616.0108;5.668;-0.188;-0.043;196.3;-0.2;-3.3;0;0;0;5.8;-0.7;-3.5;97528;34;0;0;0;0;66.2;71.2;84.9;0.5027235;-0.09796909;-0.004696851;0.858865;2;0;0;0;0;0;0;0;0;4107;0;0;0;0;0;59305
616.0208;5.798;0.218;-0.493;196.7;0.7;-3.5;0;0;0;5.1;-0.6;-4.2;97518;34;0;0;0;0;66.9;71.9;85.3;0.4878841;-0.09813591;-0.003305167;0.8673681;2;0;0;0;0;0;0;0;0;4107;0;0;0;0;0;16080
616.0308;5.501;0.025;0.403;196.5;-2.2;-2.7;0;0;0;5.8;-0.6;-3.4;97515;34;0;0;0;0;67.5;72.6;85.6;0.4729192;-0.09845824;-0.001733258;0.8755857;2;0;0;0;0;0;0;0;0;4107;0;0;0;0;0;10000
616.0408;5.825;-0.016;0.078;196;-1.8;-3.1;0;0;0;5.4;-0.7;-3.9;97497;34;0;0;0;0;68.3;73.4;86;0.4578553;-0.09873931;-0.0002068334;0.8835264;2;0;0;0;0;0;0;0;0;4107;0;0;0;0;0;20901
616.0508;6.002;0.104;0.117;193.8;1.8;-3.7;0;0;0;6.5;-0.5;-3.7;97481;34;0;0;0;0;69;74.1;86.3;0.4428208;-0.09873634;0.001106977;0.8911563;2;0;0;0;0;0;0;0;0;4107;0;0;0;0;0;58280
616.0608;5.136;-0.101;-0.298;198.2;-1.9;0.7;0;0;0;7;-0.7;-3.9;97490;34;0;0;0;0;69.7;74.9;86.6;0.4273509;-0.09882486;0.002939255;0.8986635;2;0;0;0;0;0;0;0;0;4107;0;0;0;0;0;39004
616.0708;6.565;-0.04;0.17;197.8;0.1;-3.9;0;0;0;6.3;-0.8;-3.1;97458;34;0;0;0;0;70.5;75.6;87.1;0.4117422;-0.09889445;0.004335173;0.905908;2;0;0;0;0;0;0;0;0;4107;0;0;0;0;0;65293
616.0808;5.995;-0.159;-0.227;202.6;-0.6;-0.5;0;0;0;5.3;-0.6;-3.6;97456;34;0;0;0;0;71.3;76.4;87.4;0.3956605;-0.09886667;0.006061563;0.9130397;2;0;0;0;0;0;0;0;0;4107;0;0;0;0;0;51765
616.0906;5.623;0.056;0.097;202;-2.3;-8.2;0;0;0;6;-0.4;-3.7;97465;34;0;0;0;0;72;77.1;87.8;0.3797262;-0.09920524;0.007212723;0.919736;2;0;0;0;0;0;0;0;0;4107;0;0;0;0;0;2671
616.1008;6.392;-0.061;0.102;204.1;-2.9;-4.7;0;0;0;4.6;-0.7;-3.8;97443;34;0;0;0;0;72.8;77.9;88.2;0.3629454;-0.09945082;0.008727077;0.926447;2;0;0;0;0;0;0;0;0;4107;0;0;0;0;0;40813
616.1108;5.339;-0.301;-0.102;199.8;-6.7;-6.3;0;0;0;5.2;-0.6;-3.9;97442;34;0;0;0;0;73.5;78.7;88.5;0.3466812;-0.1000207;0.01016383;0.9325796;2;0;0;0;0;0;0;0;0;4107;0;0;0;0;0;63215
616.1208;5.375;0.111;0.115;208.1;-4.3;-6.1;0;0;0;4.9;-1.1;-4.2;97429;34;0;0;0;0;74.3;79.5;88.8;0.3296327;-0.1003535;0.01160944;0.9386888;2;0;0;0;0;0;0;0;0;4107;0;0;0;0;0;2108
616.1308;5.292;0.11;-0.101;209.7;-5.9;-5.4;0;0;0;5.1;-0.9;-4.1;97432;34;0;0;0;0;75;80.3;89.2;0.3123536;-0.1007611;0.01317404;0.9445151;2;0;0;0;0;0;0;0;0;4107;0;0;0;0;0;9339
616.1408;5.068;-0.091;0.185;209.2;-6.9;0.1;0;0;0;4.9;-0.7;-3.7;97420;34;0;0;0;0;75.7;81;89.4;0.2950573;-0.1010676;0.0152066;0.9499975;2;0;0;0;0;0;0;0;0;4107;0;0;0;0;0;58380
616.1508;5.451;-0.071;0.101;205.2;-5.6;-0.5;0;0;0;4.9;-0.7;-4.4;97409;34;0;0;0;0;76.5;81.8;89.8;0.2779919;-0.1012563;0.01712016;0.9550783;2;0;0;0;0;0;0;0;0;4107;0;0;0;0;0;9363
616.1608;5.521;-0.051;-0.179;213;-2.8;4;0;0;0;4.6;-0.7;-4.4;97394;34;0;0;0;0;77.3;82.6;90.1;0.2602245;-0.1010575;0.01940267;0.960049;2;0;0;0;0;0;0;0;0;4107;0;0;0;0;0;46281
616.1708;5.528;0.043;0.176;210.6;-1.2;4;0;0;0;5.4;-0.5;-3.6;97385;34;0;0;0;0;78;83.4;90.4;0.242576;-0.1006935;0.02162039;0.9646503;2;0;0;0;0;0;0;0;0;4107;0;0;0;0;0;37774
616.1808;5.049;-0.152;-0.355;214.6;0.5;6.2;0;0;0;4.7;-0.8;-3.9;97363;34;0;0;0;0;78.9;84.2;90.7;0.2245307;-0.1001;0.02401281;0.9690147;2;0;0;0;0;0;0;0;0;4107;0;0;0;0;0;60698
616.1908;5.223;0.173;0.113;210.2;2.6;2.8;0;0;0;5.5;-0.7;-4;97371;34;0;0;0;0;79.6;85;91;0.2067493;-0.09937079;0.02602794;0.9729865;2;0;0;0;0;0;0;0;0;4107;0;0;0;0;0;60257
616.2008;3.99;-0.063;-0.076;214.6;1.9;5.8;0;0;0;6.9;-0.8;-4.3;97363;34;0;0;0;0;80.4;85.8;91.2;0.1885474;-0.09859661;0.02833924;0.9766912;2;0;0;0;0;0;0;0;0;4107;0;0;0;0;0;2286
616.2108;5.613;0.172;-0.022;214.8;4.8;2.9;0;0;0;4.6;-0.7;-3.9;97341;34;0;0;0;0;81.2;86.6;91.6;0.1702496;-0.09759009;0.03035;0.9800868;2;0;0;0;0;0;0;0;0;4107;0;0;0;0;0;27329
616.2208;4.946;-0.182;0.126;214.4;4;5.4;0;0;0;5;-0.5;-3.9;97341;34;0;0;0;0;82;87.4;91.9;0.1519457;-0.09657877;0.0325737;0.9831195;2;0;0;0;0;0;0;0;0;4107;0;0;0;0;0;44443
616.2308;4.418;0.148;0;215;4.1;1.7;0;0;0;4.3;-0.5;-4.2;97326;34;0;0;0;0;82.9;88.2;92.1;0.133507;-0.09557513;0.03447168;0.985826;2;0;0;0;0;0;0;0;0;4107;0;0;0;0;0;21301
616.2408;5.61;0.069;0.001;215.6;4.7;1.7;0;0;0;5.7;-0.2;-3.8;97325;34;0;0;0;0;83.6;89;92.4;0.1149671;-0.09448158;0.03635561;0.9881974;2;0;0;0;0;0;0;0;0;4107;0;0;0;0;0;1280
616.2508;5.129;-0.141;-0.11;215.8;4.7;3.1;0;0;0;5.3;-0.6;-3.6;97318;34;0;0;0;0;84.4;89.8;92.7;0.09638585;-0.09334005;0.03834851;0.9902156;2;0;0;0;0;0;0;0;0;4107;0;0;0;0;0;10631
616.2608;5.442;0.061;0.264;215.1;2.4;-1.1;0;0;0;5.6;-0.8;-3.1;97303;34;0;0;0;0;85.2;90.6;93.1;0.0777891;-0.09240278;0.03997872;0.9918731;2;0;0;0;0;0;0;0;0;4107;0;0;0;0;0;44748
616.2708;5.93;0.258;-0.067;220.2;-3.2;-0.7;0;0;0;5.7;-0.5;-4.2;97292;34;0;0;0;0;86.1;91.5;93.5;0.05869978;-0.09190197;0.0417111;0.993161;2;0;0;0;0;0;0;0;0;4107;0;0;0;0;0;30376
616.2808;3.746;-0.266;-0.283;214.8;-3.5;0.1;0;0;0;4.9;-1.1;-3.6;97292;34;0;0;0;0;86.9;92.3;93.6;0.04006768;-0.09140216;0.04345247;0.9940584;2;0;0;0;0;0;0;0;0;4107;0;0;0;0;0;9936
616.2907;5.705;0.05;-0.116;218.1;-6.9;-0.4;0;0;0;4.8;-0.6;-3.9;97284;34;0;0;0;0;87.7;93.1;94;0.02124195;-0.09115799;0.04516297;0.9945851;2;0;0;0;0;0;0;0;0;4107;0;0;0;0;0;15804
616.3006;5.566;0.006;0.024;218.3;-6.5;4.2;0;0;0;5.5;-0.6;-3.3;97275;34;0;0;0;0;88.5;93.9;94.3;0.002506632;-0.09083722;0.04724784;0.9947412;2;0;0;0;0;0;0;0;0;4105;0;0;0;0;0;11751
616.3108;5.378;0.041;-0.069;222.9;-7;4;0;0;0;4.9;-0.8;-3.7;97271;34;0;0;0;0;89.2;94.8;94.7;-0.01717118;-0.09049691;0.0493926;0.9945229;2;0;0;0;0;0;0;0;0;4105;0;0;0;0;0;22194
616.3208;4.902;0.003;0.051;220.7;-7.1;4.2;0;0;0;5;-0.7;-4.2;97254;34;0;0;0;0;90;95.6;95;-0.03631075;-0.09015032;0.05148235;0.9939337;2;0;0;0;0;0;0;0;0;4105;0;0;0;0;0;23402
616.3308;4.917;0.064;0.14;222.8;-8;3.5;0;0;0;5.2;-0.9;-4.4;97249;34;0;0;0;0;90.8;96.5;95.2;-0.05563441;-0.08983688;0.05350627;0.9929609;2;0;0;0;0;0;0;0;0;4105;0;0;0;0;0;23847
616.3408;4.557;-0.143;-0.062;222.5;-3.4;3.9;0;0;0;4.3;-0.5;-3.7;97229;34;0;0;0;0;91.7;97.3;95.5;-0.07488187;-0.08909291;0.05556605;0.991649;2;0;0;0;0;0;0;0;0;4105;0;0;0;0;0;11132
616.3508;4.603;0.209;0.185;220.4;-5.7;0;0;0;0;4.6;-0.6;-4.2;97223;34;0;0;0;0;92.5;98.2;95.7;-0.09396197;-0.08849965;0.05722845;0.9899818;2;0;0;0;0;0;0;0;0;4105;0;0;0;0;0;23012
616.3608;4.823;0.159;-0.076;227.3;-0.6;3;0;0;0;4.5;-0.2;-4;97215;34;0;0;0;0;93.3;99;96;-0.1135553;-0.08742189;0.05923042;0.987904;2;0;0;0;0;0;0;0;0;4105;0;0;0;0;0;28858
616.3708;5.999;0.167;0.008;225.9;0.6;-0.7;0;0;0;5.6;-0.7;-3.6;97192;34;0;0;0;0;94.2;99.9;96.4;-0.1330057;-0.08617786;0.06089057;0.9854822;2;0;0;0;0;0;0;0;0;4105;0;0;0;0;0;31569
616.3808;4.702;-0.042;-0.245;227.2;1;-0.3;0;0;0;4.4;-0.6;-4.5;97203;34;0;0;0;0;95;100.7;96.7;-0.1525134;-0.08486786;0.0625771;0.9826603;2;0;0;0;0;0;0;0;0;4105;0;0;0;0;0;58954
616.3908;4.347;-0.212;-0.057;227.5;2.6;-1.2;0;0;0;4;-1.1;-4.3;97185;34;0;0;0;0;95.9;101.6;96.9;-0.1719771;-0.0833732;0.06418397;0.9794658;2;0;0;0;0;0;0;0;0;4105;0;0;0;0;0;2211
616.4008;4.474;0.227;0.102;228.9;5.6;-1.1;0;0;0;3.7;-0.5;-4.5;97173;34;0;0;0;0;96.7;102.4;97.1;-0.1914808;-0.08158106;0.06582722;0.9758824;2;0;0;0;0;0;0;0;0;4106;0;0;0;0;0;31650
616.4108;4.835;0.02;-0.08;229.8;2.5;-0.8;0;0;0;4.6;-0.5;-3.6;97155;34;0;0;0;0;97.6;103.3;97.4;-0.2110009;-0.08001793;0.06742296;0.9718693;2;0;0;0;0;0;0;0;0;4106;0;0;0;0;0;55459
616.4208;5.982;0.249;-0.059;232.4;2.9;-1.7;0;0;0;5.1;-0.3;-4.2;97140;34;0;0;0;0;98.5;104.2;97.8;-0.2306586;-0.07835466;0.06893991;0.9674215;2;0;0;0;0;0;0;0;0;4106;0;0;0;0;0;56460
616.4308;4.591;-0.129;-0.138;230.6;2.7;0.7;0;0;0;3.8;-1.1;-3.8;97143;34;0;0;0;0;99.4;105;98.1;-0.2500537;-0.076736;0.07061297;0.9625999;2;0;0;0;0;0;0;0;0;4106;0;0;0;0;0;10259
616.4408;3.492;-0.007;-0.14;231.4;1.6;-1.5;0;0;0;6;-0.7;-3.7;97135;34;0;0;0;0;100.2;105.9;98.2;-0.269439;-0.07512769;0.07205627;0.9573747;2;0;0;0;0;0;0;0;0;4106;0;0;0;0;0;36552
616.4508;3.727;-0.072;-0.094;230.1;1;-0.4;0;0;0;5.1;-0.8;-3.7;97113;34;0;0;0;0;101.1;106.8;98.4;-0.2886008;-0.07357625;0.07354039;0.9517815;2;0;0;0;0;0;0;0;0;4106;0;0;0;0;0;9987
616.4608;4.484;-0.028;0.009;228.1;1;-0.3;0;0;0;4.6;-0.9;-4.1;97100;34;0;0;0;0;102.1;107.7;98.7;-0.3074778;-0.07200438;0.07498968;0.9458591;2;0;0;0;0;0;0;0;0;4106;0;0;0;0;0;16574
616.4708;3.749;-0.077;-0.102;227;-0.2;-0.4;0;0;0;3.2;-0.8;-3.9;97093;34;0;0;0;0;103;108.5;98.8;-0.3261557;-0.07051309;0.07636324;0.9395846;2;0;0;0;0;0;0;0;0;4106;0;0;0;0;0;1105
616.4808;4.769;0.376;0.288;234.6;1;-0.5;0;0;0;4.2;-0.7;-4.1;97097;34;0;0;0;0;103.8;109.4;99.1;-0.3453133;-0.06884331;0.07778043;0.9327216;2;0;0;0;0;0;0;0;0;4106;0;0;0;0;0;59310
616.4908;5.114;-0.005;0.049;231.2;-0.7;1.9;0;0;0;5.1;-1.3;-4.3;97076;34;0;0;0;0;104.8;110.3;99.4;-0.3640464;-0.0673768;0.07928798;0.9255506;2;0;0;0;0;0;0;0;0;4106;0;0;0;0;0;19846
616.5008;5.84;0.143;-0.119;235.6;1.1;2.4;0;0;0;5.6;-0.6;-3.5;97069;34;0;0;0;0;105.7;111.2;99.8;-0.3829747;-0.06571996;0.08088636;0.9178609;2;0;0;0;0;0;0;0;0;4109;0;0;0;0;0;63614
616.5106;2.958;-0.189;0.012;231.4;0.3;3.6;0;0;0;2.9;-1.3;-3.4;97068;34;0;0;0;0;106.5;112.1;99.9;-0.4010748;-0.06420075;0.0824656;0.9100642;2;0;0;0;0;0;0;0;0;4109;0;0;0;0;0;26438
616.5208;4.163;-0.202;-0.1;236.1;2.2;1.2;0;0;0;2.8;-0.8;-4.4;97049;34;0;0;0;0;107.4;113;100.1;-0.4200445;-0.06232129;0.08397171;0.9014585;2;0;0;0;0;0;0;0;0;4109;0;0;0;0;0;19655
616.5308;6.052;0.282;-0.029;234.9;1.4;-0.5;0;0;0;4.6;-0.4;-4.4;97035;34;0;0;0;0;108.4;113.9;100.5;-0.4384197;-0.0604538;0.08524302;0.8926741;2;0;0;0;0;0;0;0;0;4109;0;0;0;0;0;1892
616.5408;2.458;-0.473;0.028;234.9;-0.4;3.7;0;0;0;3.5;-0.9;-3.7;97030;34;0;0;0;0;109.3;114.8;100.6;-0.4566073;-0.05886547;0.08674183;0.8834707;2;0;0;0;0;0;0;0;0;4109;0;0;0;0;0;25859
616.5508;4.684;0.19;-0.086;235.2;0;0.5;0;0;0;4.3;-0.6;-4.2;97013;34;0;0;0;0;110.2;115.7;100.9;-0.4746324;-0.05709016;0.08797379;0.8739139;2;0;0;0;0;0;0;0;0;4109;0;0;0;0;0;52000
616.5608;3.198;-0.078;-0.123;236.3;2.1;-0.1;0;0;0;5.1;-0.6;-4;97008;34;0;0;0;0;111.1;116.6;101;-0.4925295;-0.05510122;0.08921012;0.863956;2;0;0;0;0;0;0;0;0;4109;0;0;0;0;0;34733
616.5708;4.468;0.184;-0.032;240.6;1.5;0.7;0;0;0;3.8;-0.4;-3.7;96984;34;0;0;0;0;112.1;117.5;101.3;-0.5105413;-0.05312997;0.09046268;0.8534291;2;0;0;0;0;0;0;0;0;4109;0;0;0;0;0;222
616.5808;4.783;-0.092;-0.011;238.4;2.3;2.5;0;0;0;3.9;-0.9;-4.7;96988;34;0;0;0;0;113;118.5;101.5;-0.528154;-0.05117637;0.0918355;0.8426153;2;0;0;0;0;0;0;0;0;4109;0;0;0;0;0;23350
616.5908;3.832;-0.152;-0.073;238.2;2.6;2.2;0;0;0;3;-0.5;-4;96956;34;0;0;0;0;114;119.4;101.7;-0.5455162;-0.04916427;0.09316291;0.831454;2;0;0;0;0;0;0;0;0;4109;0;0;0;0;0;17100
616.6008;3.396;0.267;-0.1;239.7;2.6;0;0;0;0;3.3;-0.7;-3.6;96965;34;0;0;0;0;114.9;120.3;101.9;-0.5627629;-0.04702007;0.09429567;0.8198752;2;0;0;0;0;0;0;0;0;4111;0;0;0;0;0;56858
616.6108;6.471;0.28;0.284;237.5;5.5;3.2;0;0;0;6.7;-0.9;-4;96954;34;0;0;0;0;115.9;121.2;102.3;-0.579568;-0.04482171;0.09575306;0.8080367;2;0;0;0;0;0;0;0;0;4111;0;0;0;0;0;51912
616.6208;4.053;0.06;-0.106;239.1;2.2;2;0;0;0;3.9;-0.6;-4.3;96947;34;0;0;0;0;116.8;122.2;102.6;-0.5962734;-0.04275817;0.09692043;0.7957615;2;0;0;0;0;0;0;0;0;4111;0;0;0;0;0;46226
616.6308;4.422;-0.18;-0.022;239.9;1.9;5.7;0;0;0;3.5;-1.2;-4.2;96933;34;0;0;0;0;117.7;123.1;102.8;-0.6127608;-0.04088674;0.09828769;0.7830657;2;0;0;0;0;0;0;0;0;4111;0;0;0;0;0;59664
616.6408;4.949;0;-0.193;237.7;1.7;1.7;0;0;0;4.9;-0.7;-4.3;96923;34;0;0;0;0;118.7;124;103.1;-0.6288493;-0.03881241;0.09932444;0.7701797;2;0;0;0;0;0;0;0;0;4111;0;0;0;0;0;36152
616.6508;2.877;-0.153;-0.01;236.7;0.8;0.4;0;0;0;3.7;-0.6;-3.7;96902;34;0;0;0;0;119.7;125;103.2;-0.6446103;-0.03671873;0.1001758;0.7570298;2;0;0;0;0;0;0;0;0;4111;0;0;0;0;0;24007
616.6608;4.778;0.157;0.008;236.6;2.7;-2.1;0;0;0;4;-1.1;-3.8;96896;34;0;0;0;0;120.6;125.9;103.5;-0.6600835;-0.03434344;0.1009241;0.7435891;2;0;0;0;0;0;0;0;0;4111;0;0;0;0;0;9145
616.6708;1.92;-0.289;-0.059;237.8;-3.1;-4.7;0;0;0;5.6;-0.6;-4.3;96888;34;0;0;0;0;121.6;126.8;103.5;-0.6754098;-0.03217074;0.10113;0.7297666;2;0;0;0;0;0;0;0;0;4111;0;0;0;0;0;40100
616.6808;3.069;0.1;0.08;243.6;0.9;-1.3;0;0;0;4.5;-0.5;-4;96876;34;0;0;0;0;122.6;127.8;103.7;-0.6907631;-0.02988067;0.1017612;0.7152609;2;0;0;0;0;0;0;0;0;4111;0;0;0;0;0;54321
616.6908;4.444;-0.147;-0.053;244;2.2;2.2;0;0;0;4.1;-0.4;-4.1;96861;34;0;0;0;0;123.6;128.7;103.9;-0.7058047;-0.02770193;0.1026458;0.7003829;2;0;0;0;0;0;0;0;0;4111;0;0;0;0;0;13736
616.7008;5.054;0.013;0.081;241.7;2.1;-0.1;0;0;0;3.8;-0.5;-4;96851;34;0;0;0;0;124.5;129.7;104.3;-0.7203953;-0.02539773;0.1033289;0.685353;2;0;0;0;0;0;0;0;0;4108;0;0;0;0;0;56328
616.7108;3.539;-0.094;-0.024;243.6;2.3;-1.4;0;0;0;3.7;-1;-3.8;96833;34;0;0;0;0;125.5;130.6;104.4;-0.7347811;-0.02296833;0.1039038;0.6699053;2;0;0;0;0;0;0;0;0;4108;0;0;0;0;0;8041
616.7206;4.269;-0.162;-0.151;246;0.8;0;0;0;0;4.2;-0.8;-3.6;96825;34;0;0;0;0;126.5;131.6;104.7;-0.7487289;-0.02072378;0.1044146;0.654273;2;0;0;0;0;0;0;0;0;4108;0;0;0;0;0;62657
616.7308;2.707;-0.116;-0.061;243.7;4.3;2.7;0;0;0;2.7;-0.3;-4.2;96817;34;0;0;0;0;127.5;132.6;104.8;-0.7626682;-0.01838692;0.1052829;0.6378986;2;0;0;0;0;0;0;0;0;4108;0;0;0;0;0;20618
616.7408;5.112;0.145;-0.163;250;3.7;0.2;0;0;0;3.5;-0.5;-3.9;96782;34;0;0;0;0;128.6;133.5;105.1;-0.7763644;-0.01589696;0.1059183;0.6211176;2;0;0;0;0;0;0;0;0;4108;0;0;0;0;0;16944
616.7508;3.41;0.257;0.055;247.6;2.8;0.1;0;0;0;4.3;-0.5;-3.5;96793;34;0;0;0;0;129.6;134.5;105.3;-0.7895737;-0.01345752;0.106436;0.604205;2;0;0;0;0;0;0;0;0;4108;0;0;0;0;0;29161
616.7608;4.77;-0.026;-0.004;247.9;4.8;3.8;0;0;0;4.2;-0.7;-4.3;96791;34;0;0;0;0;130.6;135.5;105.6;-0.8024062;-0.01116145;0.1072349;0.5869587;2;0;0;0;0;0;0;0;0;4108;0;0;0;0;0;10680
616.7708;2.782;-0.196;-0.149;243.5;3;1.4;0;0;0;3.8;-0.9;-3.3;96779;34;0;0;0;0;131.6;136.4;105.7;-0.8146634;-0.008828071;0.107731;0.5697716;2;0;0;0;0;0;0;0;0;4108;0;0;0;0;0;23946
616.7808;4.413;0.213;0.089;248.6;3.7;1.8;0;0;0;2.8;-0.7;-3.1;96754;34;0;0;0;0;132.6;137.4;105.9;-0.8267922;-0.006437672;0.1082519;0.5519555;2;0;0;0;0;0;0;0;0;4108;0;0;0;0;0;58483
616.7908;2.523;-0.142;0.181;248.1;3.3;2.5;0;0;0;4.1;-0.9;-3.5;96751;34;0;0;0;0;133.6;138.4;106;-0.8385121;-0.004116224;0.1087302;0.5339087;2;0;0;0;0;0;0;0;0;4108;0;0;0;0;0;33509
616.8008;3.429;0.117;0.09;251.2;3;2.8;0;0;0;4;-0.5;-3.2;96735;34;0;0;0;0;134.7;139.4;106.2;-0.8499806;-0.001800406;0.1091454;0.5153804;2;0;0;0;0;0;0;0;0;4110;0;0;0;0;0;297
616.8108;2.094;-0.387;-0.059;251.1;0.1;4;0;0;0;4.1;-0.9;-3.4;96725;34;0;0;0;0;135.7;140.4;106.2;-0.861065;0.0002983149;0.1093489;0.4965982;2;0;0;0;0;0;0;0;0;4110;0;0;0;0;0;65033
616.8208;5.08;0.219;-0.174;251.4;2.1;1.1;0;0;0;2.3;-0.9;-3.8;96710;34;0;0;0;0;136.7;141.3;106.6;-0.8717284;0.002708379;0.109525;0.4775843;2;0;0;0;0;0;0;0;0;4110;0;0;0;0;0;48555
616.8308;3.628;-0.024;-0.061;249.6;3.3;4.4;0;0;0;3.3;-0.6;-3.8;96708;34;0;0;0;0;137.7;142.3;106.8;-0.8818888;0.00489913;0.1098767;0.4584488;2;0;0;0;0;0;0;0;0;4110;0;0;0;0;0;54875
616.8408;4.782;0.279;-0.108;251.5;2.8;2.5;0;0;0;4.2;-0.9;-3;96680;34;0;0;0;0;138.8;143.3;107.1;-0.8917106;0.007223954;0.1100592;0.4389612;2;0;0;0;0;0;0;0;0;4110;0;0;0;0;0;38507
616.8508;3.135;-0.086;-0.072;252.5;1;3.4;0;0;0;2.8;-0.5;-4.2;96673;34;0;0;0;0;139.8;144.3;107.2;-0.9011561;0.00942232;0.1100839;0.4191781;2;0;0;0;0;0;0;0;0;4110;0;0;0;0;0;24514
616.8608;5.05;0.3;-0.17;252.8;2.1;-0.7;0;0;0;3.8;-0.4;-3.8;96682;34;0;0;0;0;140.8;145.3;107.5;-0.9101607;0.0119764;0.109989;0.3992075;2;0;0;0;0;0;0;0;0;4110;0;0;0;0;0;572
616.8708;3.432;0.079;-0.113;251.3;-0.4;-0.3;0;0;0;3.5;-0.7;-3.5;96659;34;0;0;0;0;141.8;146.3;107.7;-0.9186984;0.01438947;0.1096569;0.3791592;2;0;0;0;0;0;0;0;0;4110;0;0;0;0;0;18504
616.8808;2.095;0.015;0.203;251;4.8;-1.9;0;0;0;2.8;-0.5;-3.3;96654;34;0;0;0;0;142.8;147.3;107.8;-0.9267333;0.01709566;0.1096401;0.3589599;2;0;0;0;0;0;0;0;0;4110;0;0;0;0;0;30077
616.8908;2.806;0.208;-0.194;255;2;-2.3;0;0;0;1.7;-0.5;-4.2;96638;34;0;0;0;0;143.9;148.3;107.9;-0.9344654;0.01977727;0.1093244;0.338277;2;0;0;0;0;0;0;0;0;4110;0;0;0;0;0;2156
616.9008;2.52;0.101;0.262;252;3;-1.9;0;0;0;3.8;-0.5;-4;96621;34;0;0;0;0;144.9;149.3;108;-0.941645;0.02242156;0.1090505;0.3176633;2;0;0;0;0;0;0;0;0;4110;0;0;0;0;0;54599
616.9108;1.895;-0.049;0.111;256.1;3.5;-2.6;0;0;0;2.2;-0.8;-4.1;96611;34;0;0;0;0;145.9;150.3;108;-0.9484684;0.02515878;0.1087379;0.2965651;2;0;0;0;0;0;0;0;0;4110;0;0;0;0;0;45315
616.9208;2.209;0.099;0.217;253;1;-3.1;0;0;0;1.3;-0.5;-4.6;96599;34;0;0;0;0;147;151.4;108.1;-0.9547669;0.02783552;0.1081554;0.2755862;2;0;0;0;0;0;0;0;0;4110;0;0;0;0;0;5291
616.9306;0.075;-0.328;0.073;251.8;1.9;-2.4;0;0;0;1;-1.1;-3.6;96580;34;0;0;0;0;148.1;152.3;107.9;-0.9604667;0.03040036;0.1076335;0.2549404;2;0;0;0;0;0;0;0;0;4110;0;0;0;0;0;11381
616.9408;0.304;0.109;-0.034;254.5;0.7;-5.4;0;0;0;1.1;-0.6;-3.3;96572;34;0;0;0;0;149.1;153.4;107.8;-0.9659619;0.03329942;0.106862;0.2332149;2;0;0;0;0;0;0;0;0;4110;0;0;0;0;0;5311
616.9508;-0.346;-0.077;0.128;250.5;2.9;-3.1;0;0;0;-0.6;-0.8;-3.5;96561;34;0;0;0;0;150.2;154.4;107.6;-0.970791;0.03594875;0.106292;0.2120718;2;0;0;0;0;0;0;0;0;4110;0;0;0;0;0;58165
616.9608;-0.571;0.096;0.183;255.2;1.2;-3.1;0;0;0;-0.9;-0.7;-3.9;96562;34;0;0;0;0;151.2;155.4;107.4;-0.9752502;0.03858704;0.1055146;0.1904331;2;0;0;0;0;0;0;0;0;4110;0;0;0;0;0;14810
616.9708;-0.759;-0.11;0.092;254.6;0.5;-4.6;0;0;0;-0.9;-0.4;-3.3;96534;34;0;0;0;0;152.3;156.4;107.2;-0.979219;0.0413205;0.1046017;0.1687644;2;0;0;0;0;0;0;0;0;4110;0;0;0;0;0;32554
616.9808;-0.929;-0.052;0.15;255.2;1.4;-5.7;0;0;0;-1.1;-0.6;-3.9;96516;34;0;0;0;0;153.4;157.4;107;-0.9827;0.04414834;0.103696;0.1469652;2;0;0;0;0;0;0;0;0;4110;0;0;0;0;0;64457
616.9908;-1.12;-0.168;0.028;262;-0.7;-9.4;0;0;0;-1.3;-1;-3.7;96448;34;0;0;0;0;154.7;158.4;106.7;-0.9857728;0.04729931;0.1024786;0.1245507;2;0;0;0;0;0;0;0;0;4110;0;0;0;0;0;30166
617.0008;-2.008;-0.144;-0.042;264.2;-2.3;-14.4;0;0;0;-2;-0.9;-3.7;96321;34;0;0;0;0;156.4;159.4;106.4;-0.9883416;0.05086141;0.101011;0.1019352;2;0;0;0;0;0;0;0;0;4110;0;0;0;0;0;52438
617.0108;-2.271;-0.076;-0.042;262.5;4.1;-15.6;0;0;0;-2.7;-0.3;-4.2;96132;34;0;0;0;0;158.8;160.5;106.1;-0.9903105;0.05454103;0.100036;0.07939278;2;0;0;0;0;0;0;0;0;4110;0;0;0;0;0;30801
617.0208;-1.921;-0.281;0.018;262.5;5.9;-15.1;0;0;0;-2.4;-0.6;-4.2;95947;34;0;0;0;0;161.9;161.5;105.8;-0.9917443;0.0581622;0.09916887;0.05679559;2;0;0;0;0;0;0;0;0;4110;0;0;0;0;0;4551
617.0308;-2.218;-0.176;0.095;260.8;3.5;-16.6;0;0;0;-2.2;-0.8;-3.6;95853;34;0;0;0;0;165.2;162.6;105.5;-0.9926636;0.06185927;0.09804525;0.03434544;2;0;0;0;0;0;0;0;0;4110;0;0;0;0;0;22816
617.0408;-2.603;-0.208;0.182;254.8;4.3;-18;0;0;0;-2.7;-0.9;-3.7;95800;34;0;0;0;0;168.7;163.8;105.2;-0.9930466;0.06559154;0.09696659;0.0124001;2;0;0;0;0;0;0;0;0;4110;0;0;0;0;0;17116
617.0508;-2.44;-0.236;0.131;254.5;3.7;-10.6;0;0;0;-3;-0.7;-3.6;95776;34;0;0;0;0;172.3;164.9;105;-0.9929847;0.06865088;0.09579527;-0.009579676;2;0;0;0;0;0;0;0;0;4110;0;0;0;0;0;24871
617.0608;-2.382;-0.282;0.201;253;-0.1;-8.2;0;0;0;-2.6;-0.8;-4;95799;34;0;0;0;0;175.6;166.1;104.7;-0.9924825;0.07146123;0.09425626;-0.03142472;2;0;0;0;0;0;0;0;0;4110;0;0;0;0;0;14892
617.0708;-2.638;-0.24;0.149;251.4;5.3;-5.2;0;0;0;-2.8;-0.6;-3.6;95866;34;0;0;0;0;178.7;167.4;104.5;-0.9914783;0.0739483;0.09314008;-0.05317355;2;0;0;0;0;0;0;0;0;4110;0;0;0;0;0;63484
617.0808;-2.412;-0.323;0.092;250.4;9;-0.7;0;0;0;-2.6;-0.7;-3.9;95915;34;0;0;0;0;181.5;168.6;104.3;-0.9900017;0.0759872;0.09228569;-0.07487247;2;0;0;0;0;0;0;0;0;4110;0;0;0;0;0;48234
617.0908;-1.73;-0.31;0.131;250.7;12.4;2.4;0;0;0;-1.9;-1.1;-4;95973;34;0;0;0;0;184.1;169.9;104.2;-0.9880432;0.07769796;0.09165488;-0.09660736;2;0;0;0;0;0;0;0;0;4110;0;0;0;0;0;56154
617.1008;-1.922;-0.208;0.156;256.2;12;0.6;0;0;0;-2.2;-0.6;-3.8;95984;34;0;0;0;0;186.5;171.2;104.1;-0.985545;0.07957412;0.09092733;-0.1187484;2;0;0;0;0;0;0;0;0;4110;0;0;0;0;0;11931
617.1108;-2.498;-0.18;0.253;258.1;10.8;-0.3;0;0;0;-3;-0.9;-3.2;95871;34;0;0;0;0;189.2;172.5;104;-0.9825338;0.08151098;0.0900407;-0.1409826;2;0;0;0;0;0;0;0;0;4110;0;0;0;0;0;16808
617.1208;-2.917;-0.249;0.117;255.9;7.1;2.8;0;0;0;-2.8;-0.3;-3.8;95650;34;0;0;0;0;192.7;173.8;103.8;-0.9791059;0.08316997;0.08877476;-0.1629522;2;0;0;0;0;0;0;0;0;4110;0;0;0;0;0;3276
617.1308;-2.797;-0.288;0.022;247.6;12.6;3.8;0;0;0;-3.3;-0.6;-3.4;95419;34;0;0;0;0;197.1;175.2;103.7;-0.9752864;0.08456247;0.08798427;-0.1841856;3;0;0;0;0;0;0;0;0;4110;0;0;0;0;0;46838
617.1406;-2.176;-0.232;-0.042;249.8;13.1;1.2;0;0;0;-2.3;-0.6;-3.7;95297;34;0;0;0;0;201.7;176.6;103.7;-0.971031;0.08611611;0.08723369;-0.2051175;3;0;0;0;0;0;0;0;0;4110;0;0;0;0;0;14934
617.1508;-2.031;-0.279;0.093;256.4;10;-3;0;0;0;-2.2;-0.7;-3.6;95273;34;0;0;0;0;206.4;178.1;103.7;-0.9660074;0.0881549;0.08616617;-0.227231;3;0;0;0;0;0;0;0;0;4110;0;0;0;0;0;14979
617.1608;-2.408;-0.199;0.073;262.9;8.2;-8.2;0;0;0;-2.7;-0.9;-3.7;95224;34;0;0;0;0;211.2;179.6;103.7;-0.9604157;0.09063938;0.08497347;-0.2493306;3;0;0;0;0;0;0;0;0;4110;0;0;0;0;0;43998
617.1708;-3.023;-0.213;0.136;263.4;5.2;-12.1;0;0;0;-3.2;-1.3;-4.3;95126;34;0;0;0;0;216.2;181.2;103.7;-0.9542989;0.09346563;0.08356996;-0.2712819;3;0;0;0;0;0;0;0;0;4110;0;0;0;0;0;36204
617.1808;-3.184;-0.26;0.205;249.2;4.1;-9.4;0;0;0;-3.9;-0.9;-3.6;94946;34;0;0;0;0;221.9;182.9;103.7;-0.9480703;0.09594072;0.08208252;-0.2919255;3;0;0;0;0;0;0;0;0;4110;0;0;0;0;0;23247
617.1908;-2.494;-0.353;0.189;242;4.5;-8.6;0;0;0;-3.1;-0.6;-3.2;94843;34;0;0;0;0;227.8;184.6;103.9;-0.9415914;0.09824798;0.08062643;-0.311853;3;0;0;0;0;0;0;0;0;4110;0;0;0;0;0;33369
617.2008;-2.323;-0.241;0.047;247.1;4.2;-7.4;0;0;0;-2.5;-0.9;-3.8;94883;34;0;0;0;0;233.4;186.3;104.1;-0.934558;0.1004538;0.07904077;-0.3320588;3;0;0;0;0;0;0;0;0;4112;0;0;0;0;0;47561
617.2108;-2.343;-0.303;0.069;246.4;2.3;-9.3;0;0;0;-2.2;-0.5;-4.2;95029;34;0;0;0;0;238.4;188.2;104.3;-0.927106;0.1028196;0.07731889;-0.3520289;3;0;0;0;0;0;0;0;0;4112;0;0;0;0;0;33557
617.2208;-2.664;-0.346;0.124;246.6;1.4;-8.7;0;0;0;-3;-0.7;-4.2;95126;34;0;0;0;0;242.9;190;104.5;-0.9192293;0.1051219;0.0754685;-0.3718485;3;0;0;0;0;0;0;0;0;4112;0;0;0;0;0;18221
617.2308;-2.364;-0.275;0.062;245.8;1.9;-3;0;0;0;-2.4;-0.9;-3.6;95177;34;0;0;0;0;247.1;191.9;104.8;-0.9110044;0.1068915;0.07344966;-0.3914721;3;0;0;0;0;0;0;0;0;4112;0;0;0;0;0;41775
617.2408;-2.373;-0.231;0.129;244.4;4.7;-2.7;0;0;0;-2.4;-0.9;-3.9;95264;34;0;0;0;0;250.8;193.9;105.1;-0.9023957;0.1084878;0.07161771;-0.4108326;3;0;0;0;0;0;0;0;0;4112;0;0;0;0;0;60724
617.2508;-2.329;-0.229;0.145;241.9;3.6;-0.8;0;0;0;-2.5;-0.4;-4.1;95338;34;0;0;0;0;254.1;195.8;105.4;-0.8934955;0.1099084;0.06962693;-0.4298117;3;0;0;0;0;0;0;0;0;4112;0;0;0;0;0;10886
617.2608;-2.428;-0.307;0.105;240.9;6.1;1.1;0;0;0;-2.8;-1.2;-3.9;95387;34;0;0;0;0;257;197.8;105.7;-0.8842395;0.1110296;0.06773216;-0.4485591;3;0;0;0;0;0;0;0;0;4112;0;0;0;0;0;23072
617.2708;-2.396;-0.28;0.088;243.3;6.3;1.4;0;0;0;-2.6;-0.7;-4.1;95430;34;0;0;0;0;259.7;199.8;106.1;-0.8744944;0.1120858;0.06578866;-0.4672989;3;0;0;0;0;0;0;0;0;4112;0;0;0;0;0;50481
617.2808;-2.216;-0.235;0.113;243.2;9.5;1.3;0;0;0;-2.5;-0.7;-3.9;95430;34;0;0;0;0;262.3;201.8;106.4;-0.8643407;0.1129701;0.06406824;-0.4858479;3;0;0;0;0;0;0;0;0;4112;0;0;0;0;0;47843
617.2908;-2.212;-0.255;0.092;248;9.6;-0.2;0;0;0;-2.4;-0.9;-3.9;95436;34;0;0;0;0;264.7;203.8;106.8;-0.8535696;0.1139344;0.06234363;-0.5045308;3;0;0;0;0;0;0;0;0;4112;0;0;0;0;0;8272
617.3008;-2.324;-0.238;0.077;244.3;10.1;-1;0;0;0;-2.5;-0.6;-3.5;95408;34;0;0;0;0;267;205.8;107.1;-0.8425573;0.1148647;0.06069225;-0.5227042;3;0;0;0;0;0;0;0;0;4114;0;0;0;0;0;49476
617.3108;-2.449;-0.184;0.008;244.3;8.9;-1.9;0;0;0;-2.8;-0.7;-4.1;95329;34;0;0;0;0;269.6;207.8;107.4;-0.8311577;0.1158658;0.05897562;-0.5406235;3;0;0;0;0;0;0;0;0;4114;0;0;0;0;0;36699
617.3208;-2.46;-0.26;0.06;242.7;9.5;-1.7;0;0;0;-2.6;-0.8;-4.1;95225;34;0;0;0;0;272.4;209.8;107.8;-0.8194583;0.1167596;0.057276;-0.5581888;3;0;0;0;0;0;0;0;0;4114;0;0;0;0;0;19563
617.3308;-2.2;-0.209;0.061;242.4;8.4;-1.9;0;0;0;-2.6;-0.9;-3.6;95162;34;0;0;0;0;275.3;211.9;108.2;-0.8074119;0.1176688;0.05548441;-0.5754663;3;0;0;0;0;0;0;0;0;4114;0;0;0;0;0;8510
617.3408;-2.169;-0.262;0.096;244.4;7.2;-3.8;0;0;0;-2.4;-0.8;-3.9;95121;34;0;0;0;0;278.3;214;108.5;-0.7948856;0.1187276;0.05365801;-0.5926057;3;0;0;0;0;0;0;0;0;4114;0;0;0;0;0;37142
617.3506;-2.306;-0.224;0.082;245.9;6.2;-5.9;0;0;0;-2.6;-0.8;-3.5;95095;34;0;0;0;0;281.2;216;108.9;-0.7821389;0.119914;0.05186549;-0.609253;3;0;0;0;0;0;0;0;0;4114;0;0;0;0;0;16662
617.3608;-2.574;-0.234;0.08;244.5;4.5;-8.2;0;0;0;-3;-1;-4.6;95042;34;0;0;0;0;284.2;218.1;109.3;-0.7686186;0.1213377;0.05001009;-0.6261002;3;0;0;0;0;0;0;0;0;4114;0;0;0;0;0;1351
617.3708;-2.618;-0.135;0.07;241.4;4;-7.3;0;0;0;-3;-0.7;-4.2;94952;34;0;0;0;0;287.4;220.3;109.7;-0.7551685;0.1226335;0.04811481;-0.6421579;3;0;0;0;0;0;0;0;0;4114;0;0;0;0;0;64424
617.3808;-2.28;-0.214;0.097;237.7;6.9;-5.2;0;0;0;-2.4;-0.9;-3.5;94914;34;0;0;0;0;290.7;222.4;110.1;-0.7416022;0.1235613;0.04630886;-0.6577343;3;0;0;0;0;0;0;0;0;4114;0;0;0;0;0;22638
617.3908;-2.2;-0.259;0.027;235;6.2;-4.6;0;0;0;-2.5;-0.9;-3.5;94985;34;0;0;0;0;293.5;224.5;110.5;-0.7278863;0.1244248;0.04443116;-0.6728492;3;0;0;0;0;0;0;0;0;4114;0;0;0;0;0;61458
617.4008;-2.188;-0.211;0.045;238.2;4.6;-5;0;0;0;-2.6;-0.9;-3.8;95069;34;0;0;0;0;295.9;226.7;110.9;-0.7136768;0.1253686;0.04242274;-0.6878579;3;0;0;0;0;0;0;0;0;4113;0;0;0;0;0;22072
617.4108;-2.233;-0.283;0.023;236.7;3.8;-4.9;0;0;0;-2.4;-1.1;-3.6;95114;34;0;0;0;0;298;228.9;111.4;-0.6992529;0.1262992;0.04035567;-0.7024709;3;0;0;0;0;0;0;0;0;4113;0;0;0;0;0;5271
617.4208;-2.294;-0.183;0.09;236.1;3.2;-3.5;0;0;0;-2.6;-1;-3.9;95155;34;0;0;0;0;299.8;231;111.8;-0.6845883;0.1271185;0.03815412;-0.7167456;3;0;0;0;0;0;0;0;0;4113;0;0;0;0;0;58699
617.4308;-2.153;-0.19;0.067;234;4.5;-2;0;0;0;-2.8;-0.9;-3.8;95174;34;0;0;0;0;301.4;233.2;112.2;-0.6697788;0.1277064;0.0359473;-0.730613;3;0;0;0;0;0;0;0;0;4113;0;0;0;0;0;9836
617.4408;-2.048;-0.188;-0.012;233.9;4.5;-2.1;0;0;0;-2.3;-0.9;-3.8;95201;34;0;0;0;0;302.8;235.3;112.6;-0.6546941;0.1282494;0.03372667;-0.7441709;3;0;0;0;0;0;0;0;0;4113;0;0;0;0;0;38619
617.4508;-2.116;-0.302;-0.006;234.7;3.1;-3.2;0;0;0;-2.3;-0.7;-4;95203;34;0;0;0;0;304;237.4;113;-0.6392726;0.1288915;0.03147928;-0.7574475;3;0;0;0;0;0;0;0;0;4113;0;0;0;0;0;59912
617.4608;-2.338;-0.237;0.018;235.6;4.6;-3.4;0;0;0;-2.5;-1;-3.6;95181;34;0;0;0;0;305.3;239.6;113.4;-0.6235152;0.1293965;0.02930426;-0.7704716;3;0;0;0;0;0;0;0;0;4113;0;0;0;0;0;40459
617.4708;-2.382;-0.241;-0.03;236.6;4.4;-2.9;0;0;0;-2.6;-1.4;-3.9;95106;34;0;0;0;0;306.7;241.7;113.8;-0.6074334;0.1298364;0.02706139;-0.7832208;3;0;0;0;0;0;0;0;0;4113;0;0;0;0;0;51736
617.4808;-2.213;-0.237;0.041;233.5;4.6;0;0;0;0;-2.4;-0.6;-3.4;95075;34;0;0;0;0;308.1;243.8;114.1;-0.5913391;0.1300443;0.02465223;-0.7954866;3;0;0;0;0;0;0;0;0;4113;0;0;0;0;0;18737
617.4908;-2.053;-0.187;0.027;232.4;4.7;1.4;0;0;0;-2.4;-0.7;-4;95105;34;0;0;0;0;309.3;245.9;114.5;-0.5750986;0.1301139;0.02215643;-0.8073668;3;0;0;0;0;0;0;0;0;4113;0;0;0;0;0;20376
617.5008;-1.96;-0.279;0.034;233.7;3.7;1.1;0;0;0;-2.3;-1.1;-3.7;95134;34;0;0;0;0;310.2;247.9;114.9;-0.5585254;0.1302204;0.01960342;-0.8189675;3;0;0;0;0;0;0;0;0;4114;0;0;0;0;0;44992
617.5108;-1.906;-0.225;0.087;230.7;3.1;-0.8;0;0;0;-2.3;-1;-3.8;95155;34;0;0;0;0;311;250;115.2;-0.5419118;0.1304088;0.0171851;-0.8300781;3;0;0;0;0;0;0;0;0;4114;0;0;0;0;0;18540
617.5208;-2.29;-0.223;0.071;232.6;2.6;-2.2;0;0;0;-2.6;-0.8;-4;95108;34;0;0;0;0;311.9;252.1;115.5;-0.5249298;0.1306433;0.01482059;-0.8409289;3;0;0;0;0;0;0;0;0;4114;0;0;0;0;0;9326
617.5308;-2.369;-0.217;0.094;229.5;1.7;-1.9;0;0;0;-2.6;-0.9;-3.8;95026;34;0;0;0;0;313;254.1;115.8;-0.5079655;0.1308715;0.0124178;-0.851287;3;0;0;0;0;0;0;0;0;4114;0;0;0;0;0;60051
617.5408;-2.039;-0.185;-0.035;227.3;3.8;-1.8;0;0;0;-2.2;-1;-4.1;94946;34;0;0;0;0;314.3;256.1;116.2;-0.4909591;0.1308915;0.01011961;-0.8612341;3;0;0;0;0;0;0;0;0;4114;0;0;0;0;0;32331
617.5508;-2.025;-0.214;0.026;227;2.5;-1.7;0;0;0;-2.2;-0.7;-3.7;94970;34;0;0;0;0;315.4;258.1;116.5;-0.4737836;0.1309485;0.007756153;-0.8708165;3;0;0;0;0;0;0;0;0;4114;0;0;0;0;0;15726
617.5606;-2.061;-0.227;0.094;230.3;-1.4;-2.8;0;0;0;-1.8;-0.9;-4.5;94995;34;0;0;0;0;316.3;260.1;116.8;-0.4564775;0.1312915;0.00532782;-0.8799788;3;0;0;0;0;0;0;0;0;4114;0;0;0;0;0;11942
617.5708;-2.149;-0.305;0.061;231.4;-2.9;-2.4;0;0;0;-2.9;-0.6;-4.4;95033;34;0;0;0;0;317;262.1;117;-0.4382674;0.1316938;0.002694508;-0.8891407;3;0;0;0;0;0;0;0;0;4114;0;0;0;0;0;29340
617.5808;-2.093;-0.113;-0.006;231.1;2.3;0.1;0;0;0;-1.7;-1;-3.4;95047;34;0;0;0;0;317.5;264.1;117.3;-0.4202532;0.1315393;0.0001186641;-0.8978223;3;0;0;0;0;0;0;0;0;4114;0;0;0;0;0;43432
617.5908;-1.896;-0.288;0.074;230.1;0.1;0.3;0;0;0;-2.2;-0.8;-3.3;95067;34;0;0;0;0;317.9;266;117.6;-0.4021481;0.1314938;-0.002542002;-0.9060795;3;0;0;0;0;0;0;0;0;4114;0;0;0;0;0;40729
617.6008;-1.771;-0.279;-0.025;232.1;-1.4;-1.4;0;0;0;-1.7;-0.9;-4.6;95083;34;0;0;0;0;318.1;268;117.8;-0.3837042;0.1315775;-0.0051398;-0.9140197;3;0;0;0;0;0;0;0;0;4108;0;0;0;0;0;37926
617.6108;-2.066;-0.241;0.077;229.1;0.1;-2.6;0;0;0;-2.6;-0.7;-2.8;95070;34;0;0;0;0;318.3;269.9;118;-0.3653271;0.1315241;-0.007560908;-0.9215099;3;0;0;0;0;0;0;0;0;4108;0;0;0;0;0;65329
617.6208;-2.331;-0.255;0.038;223.3;1.6;-4;0;0;0;-2.6;-0.9;-3.4;94989;34;0;0;0;0;318.8;271.7;118.2;-0.3472652;0.1313496;-0.0097522;-0.9284713;3;0;0;0;0;0;0;0;0;4108;0;0;0;0;0;48264
617.6308;-2.065;-0.189;0.059;222.5;6.6;-3.1;0;0;0;-1.8;-0.9;-3.6;94913;34;0;0;0;0;319.4;273.6;118.4;-0.329149;0.130696;-0.01185411;-0.9351145;3;0;0;0;0;0;0;0;0;4108;0;0;0;0;0;24176
617.6408;-2.042;-0.333;-0.037;223.5;9.3;-3.1;0;0;0;-2.1;-0.8;-4.3;94894;34;0;0;0;0;320.1;275.4;118.6;-0.31083;0.1297711;-0.01387859;-0.9414625;3;0;0;0;0;0;0;0;0;4108;0;0;0;0;0;49517
617.6508;-1.917;-0.215;0.063;225.6;4.7;-3.5;0;0;0;-2.2;-1;-4.1;94948;34;0;0;0;0;320.5;277.3;118.7;-0.2922089;0.1291846;-0.01601231;-0.9474539;3;0;0;0;0;0;0;0;0;4108;0;0;0;0;0;19482
617.6608;-2.043;-0.223;0.107;226.4;4.8;-3.9;0;0;0;-2.3;-0.8;-3.9;94978;34;0;0;0;0;320.7;279.1;118.9;-0.273401;0.1285442;-0.01811675;-0.9531003;3;0;0;0;0;0;0;0;0;4108;0;0;0;0;0;49600
617.6708;-2.049;-0.203;0.097;222.4;6.2;-3.5;0;0;0;-1.9;-1.2;-3.8;94983;34;0;0;0;0;320.8;280.9;119;-0.2548267;0.1277342;-0.02017104;-0.9583008;3;0;0;0;0;0;0;0;0;4108;0;0;0;0;0;14163
617.6808;-1.963;-0.229;0.066;215.1;10.6;-1.6;0;0;0;-2.2;-1.1;-4.9;94987;34;0;0;0;0;320.8;282.6;119.1;-0.2368026;0.1264798;-0.02219606;-0.9630342;3;0;0;0;0;0;0;0;0;4108;0;0;0;0;0;39986
617.6908;-1.788;-0.19;0.013;218.2;2.2;-2.8;0;0;0;-2.2;-0.9;-3.8;95002;34;0;0;0;0;320.8;284.3;119.2;-0.218399;0.1259059;-0.02431557;-0.9673978;3;0;0;0;0;0;0;0;0;4108;0;0;0;0;0;27709
617.7008;-1.876;-0.264;0.096;217.2;7.2;-3.2;0;0;0;-1.6;-1;-4.2;95028;34;0;0;0;0;320.5;286;119.3;-0.2000059;0.1248757;-0.02629128;-0.9714487;3;0;0;0;0;0;0;0;0;4108;0;0;0;0;0;12759
617.7108;-2.006;-0.233;0.072;213.6;6.6;-1.4;0;0;0;-2.4;-0.9;-2.7;95010;34;0;0;0;0;320.3;287.7;119.3;-0.1818691;0.1238255;-0.02838209;-0.9750823;3;0;0;0;0;0;0;0;0;4108;0;0;0;0;0;58529
617.7208;-1.88;-0.138;0.024;214.4;9.8;0;0;0;0;-2.1;-1.2;-4.5;94980;34;0;0;0;0;320.2;289.4;119.4;-0.1636197;0.1224349;-0.03053411;-0.9784201;3;0;0;0;0;0;0;0;0;4108;0;0;0;0;0;25359
617.7308;-1.817;-0.22;-0.017;215.4;3.5;1.8;0;0;0;-2;-0.4;-2.3;94967;34;0;0;0;0;320;291;119.4;-0.1452315;0.1215164;-0.03293216;-0.9813548;3;0;0;0;0;0;0;0;0;4108;0;0;0;0;0;44938
617.7408;-1.773;-0.26;0.002;217.4;6.8;1.4;0;0;0;-2.2;-0.7;-3.5;94981;34;0;0;0;0;319.8;292.6;119.4;-0.1266234;0.1202714;-0.03526832;-0.9840007;3;0;0;0;0;0;0;0;0;4108;0;0;0;0;0;3961
617.7508;-1.735;-0.214;0.024;218.6;5.5;0;0;0;0;-2.3;-0.7;-3.7;94993;34;0;0;0;0;319.4;294.1;119.4;-0.1078541;0.1191039;-0.03749117;-0.9862942;3;0;0;0;0;0;0;0;0;4108;0;0;0;0;0;27855
617.7608;-1.894;-0.252;0.028;220.3;6.1;-2;0;0;0;-2.1;-0.9;-3.8;94978;34;0;0;0;0;319.1;295.7;119.4;-0.0888762;0.1178572;-0.0395445;-0.9882545;3;0;0;0;0;0;0;0;0;4108;0;0;0;0;0;23415
617.7706;-2.122;-0.164;0.02;218.6;4.4;-2;0;0;0;-2.2;-1.2;-3.5;94912;34;0;0;0;0;319;297.2;119.3;-0.07034451;0.1167388;-0.04154261;-0.9897969;3;0;0;0;0;0;0;0;0;4108;0;0;0;0;0;45759
617.7808;-1.996;-0.186;-0.01;215.1;8.6;0;0;0;0;-1.8;-0.7;-3.7;94836;34;0;0;0;0;319.1;298.7;119.3;-0.05145218;0.1151678;-0.04371473;-0.9910491;3;0;0;0;0;0;0;0;0;4108;0;0;0;0;0;51353
617.7908;-1.839;-0.224;-0.022;215.3;5.8;1.2;0;0;0;-2.2;-0.9;-4.2;94828;34;0;0;0;0;319.3;300.1;119.2;-0.03285857;0.1138196;-0.04595046;-0.9918942;3;0;0;0;0;0;0;0;0;4108;0;0;0;0;0;36766
617.8008;-1.75;-0.257;0.005;216;4.8;0.7;0;0;0;-2;-0.6;-4.2;94864;34;0;0;0;0;319.2;301.6;119.1;-0.01419003;0.1125147;-0.04813658;-0.992382;3;0;0;0;0;0;0;0;0;4108;0;0;0;0;0;21613
617.8108;-1.774;-0.207;-0.003;216.3;6.1;-0.7;0;0;0;-2;-0.4;-4.1;94878;34;0;0;0;0;319.1;303;119;0.004516937;0.1110613;-0.05017947;-0.9925357;3;0;0;0;0;0;0;0;0;4108;0;0;0;0;0;55580
617.8208;-1.935;-0.271;-0.031;215.1;6.3;-1.4;0;0;0;-2.1;-0.7;-3.8;94851;34;0;0;0;0;319.1;304.4;118.9;0.02312416;0.1095493;-0.05213862;-0.9923436;3;0;0;0;0;0;0;0;0;4108;0;0;0;0;0;47021
617.8308;-1.755;-0.144;0.015;213.2;5.8;-0.7;0;0;0;-2.2;-0.9;-4.1;94824;34;0;0;0;0;319.1;305.8;118.7;0.04156164;0.1080571;-0.05412163;-0.9918;3;0;0;0;0;0;0;0;0;4108;0;0;0;0;0;6804
617.8408;-1.823;-0.218;-0.049;212.6;5.1;0.8;0;0;0;-2.3;-0.9;-4.2;94808;34;0;0;0;0;319.1;307.2;118.6;0.05991971;0.1065966;-0.05620468;-0.9909025;3;0;0;0;0;0;0;0;0;4108;0;0;0;0;0;65121
617.8508;-1.784;-0.193;-0.005;212.1;5.5;1.1;0;0;0;-1.9;-0.8;-4.2;94828;34;0;0;0;0;319.1;308.5;118.4;0.0782035;0.1050677;-0.05829569;-0.98967;3;0;0;0;0;0;0;0;0;4108;0;0;0;0;0;64217
617.8608;-1.659;-0.198;-0.048;214;4.2;0.2;0;0;0;-1.7;-0.9;-3.9;94845;34;0;0;0;0;319;309.8;118.3;0.09664419;0.1035951;-0.06029733;-0.988075;3;0;0;0;0;0;0;0;0;4108;0;0;0;0;0;3624
617.8708;-1.738;-0.314;-0.024;214.1;4.5;-1.4;0;0;0;-1.9;-0.7;-3.9;94848;34;0;0;0;0;318.8;311.1;118.1;0.1150706;0.1020543;-0.06214153;-0.9861451;3;0;0;0;0;0;0;0;0;4108;0;0;0;0;0;56105
617.8808;-1.97;-0.179;-0.039;211.8;4.3;-2.4;0;0;0;-2.2;-0.9;-4;94795;34;0;0;0;0;318.8;312.4;117.9;0.1332748;0.1004919;-0.06385258;-0.9839015;3;0;0;0;0;0;0;0;0;4108;0;0;0;0;0;2406
617.8908;-1.767;-0.19;-0.024;209.4;5.7;-1;0;0;0;-1.7;-0.5;-3.9;94753;34;0;0;0;0;318.9;313.6;117.7;0.1512029;0.0988061;-0.06566305;-0.9813579;3;0;0;0;0;0;0;0;0;4108;0;0;0;0;0;31043
617.9008;-1.769;-0.162;0;211.8;4.9;1;0;0;0;-2;-0.4;-3.6;94736;34;0;0;0;0;319.1;314.9;117.5;0.1692776;0.09717067;-0.0676292;-0.978432;3;0;0;0;0;0;0;0;0;4108;0;0;0;0;0;28086
617.9108;-1.775;-0.24;0.008;211;4.6;0.6;0;0;0;-1.9;-0.8;-4.2;94763;34;0;0;0;0;319.2;316.1;117.2;0.1872282;0.09552482;-0.0695252;-0.9751855;3;0;0;0;0;0;0;0;0;4108;0;0;0;0;0;26389
617.9208;-1.691;-0.213;-0.017;209.5;5.9;0;0;0;0;-1.7;-1;-3.8;94766;34;0;0;0;0;319.2;317.3;117;0.2049878;0.09373934;-0.07135849;-0.9716485;3;0;0;0;0;0;0;0;0;4108;0;0;0;0;0;60850
617.9308;-1.705;-0.275;0.024;210.5;5.1;-1.2;0;0;0;-2;-0.9;-4.1;94791;34;0;0;0;0;319.1;318.5;116.7;0.222776;0.09196028;-0.07306116;-0.9677687;3;0;0;0;0;0;0;0;0;4108;0;0;0;0;0;45734
617.9408;-1.824;-0.211;-0.038;209;4.5;-1.3;0;0;0;-2;-0.7;-3.9;94770;34;0;0;0;0;319.1;319.6;116.5;0.2403648;0.09021068;-0.07470292;-0.9635903;3;0;0;0;0;0;0;0;0;4108;0;0;0;0;0;32148
617.9508;-1.736;-0.141;-0.102;208.5;4.2;0.5;0;0;0;-2.1;-0.6;-4.1;94753;34;0;0;0;0;319.1;320.8;116.2;0.2578196;0.08849017;-0.07646465;-0.9590889;3;0;0;0;0;0;0;0;0;4108;0;0;0;0;0;63187
617.9608;-1.699;-0.201;-0.032;208.5;4.8;1.4;0;0;0;-1.9;-0.7;-3.7;94746;34;0;0;0;0;319.1;321.9;115.9;0.2751784;0.08671398;-0.07828982;-0.9542685;3;0;0;0;0;0;0;0;0;4108;0;0;0;0;0;6916
617.9708;-1.559;-0.226;-0.029;208.5;5.6;0.5;0;0;0;-1.9;-1;-4;94763;34;0;0;0;0;319.1;323;115.6;0.2924471;0.08481729;-0.08003347;-0.9491445;3;0;0;0;0;0;0;0;0;4108;0;0;0;0;0;65241
617.9806;-1.658;-0.225;0.025;208;5.6;-1;0;0;0;-2.1;-0.8;-4;94760;34;0;0;0;0;319;324.1;115.3;0.309282;0.08289399;-0.0815969;-0.94383;3;0;0;0;0;0;0;0;0;4108;0;0;0;0;0;64324
617.9908;-1.811;-0.284;-0.008;205.1;6.4;-1.8;0;0;0;-2.2;-1;-3.8;94745;34;0;0;0;0;319;325.1;115;0.3263858;0.08080646;-0.08311975;-0.9381012;3;0;0;0;0;0;0;0;0;4108;0;0;0;0;0;7297
618.0008;-1.585;-0.128;0.008;203.2;6.9;-1.7;0;0;0;-1.9;-0.7;-3.9;94685;34;0;0;0;0;319.2;326.2;114.7;0.3429297;0.07870501;-0.08459589;-0.9322276;3;0;0;0;0;0;0;0;0;4108;0;0;0;0;0;23303
618.0108;-1.613;-0.246;-0.021;203.7;5.7;1.4;0;0;0;-2;-0.6;-4.3;94678;34;0;0;0;0;319.4;327.2;114.3;0.3593929;0.07676406;-0.08626363;-0.9260144;3;0;0;0;0;0;0;0;0;4108;0;0;0;0;0;33127
618.0208;-1.616;-0.184;-0.018;201.4;5.5;0.5;0;0;0;-2;-0.9;-4.2;94697;34;0;0;0;0;319.6;328.2;114;0.3755642;0.07480711;-0.08781447;-0.919589;3;0;0;0;0;0;0;0;0;4108;0;0;0;0;0;55826
618.0308;-1.642;-0.214;0.051;202.2;6;1.6;0;0;0;-1.9;-0.6;-4.2;94689;34;0;0;0;0;319.7;329.2;113.7;0.3916703;0.07281616;-0.0894434;-0.9128483;3;0;0;0;0;0;0;0;0;4108;0;0;0;0;0;37069
618.0408;-1.663;-0.195;0.045;201.5;6.1;1.3;0;0;0;-2.1;-0.7;-3.7;94706;34;0;0;0;0;319.8;330.2;113.3;0.4075998;0.07078736;-0.09102261;-0.9058512;3;0;0;0;0;0;0;0;0;4108;0;0;0;0;0;6054
618.0508;-1.613;-0.157;0.021;202.2;6.2;1.8;0;0;0;-1.7;-0.8;-3.8;94723;34;0;0;0;0;319.8;331.2;112.9;0.4234544;0.0687429;-0.0926191;-0.8985446;3;0;0;0;0;0;0;0;0;4108;0;0;0;0;0;35751
618.0608;-1.655;-0.235;-0.006;201;5.9;2.3;0;0;0;-2;-0.9;-4.1;94718;34;0;0;0;0;319.8;332.1;112.6;0.4390846;0.06673232;-0.09420527;-0.8909976;3;0;0;0;0;0;0;0;0;4108;0;0;0;0;0;45595
618.0708;-1.613;-0.193;-0.003;200.4;5.9;2.6;0;0;0;-1.9;-0.9;-3.8;94722;34;0;0;0;0;319.7;333.1;112.2;0.4545338;0.06471383;-0.09578915;-0.8831962;3;0;0;0;0;0;0;0;0;4108;0;0;0;0;0;13122
618.0808;-1.573;-0.237;-0.02;200.5;5.5;2.8;0;0;0;-2.1;-1.1;-3.7;94706;34;0;0;0;0;319.8;334;111.8;0.469852;0.06271285;-0.09733821;-0.875118;3;0;0;0;0;0;0;0;0;4108;0;0;0;0;0;26817
618.0908;-1.535;-0.183;-0.006;200.2;5.4;2.4;0;0;0;-1.9;-0.4;-4.1;94703;34;0;0;0;0;319.8;334.9;111.4;0.4850076;0.06068607;-0.09882639;-0.8667861;3;0;0;0;0;0;0;0;0;4108;0;0;0;0;0;55623
618.1008;-1.606;-0.242;-0.035;199.7;6.7;2.1;0;0;0;-2;-1;-3.8;94708;34;0;0;0;0;319.8;335.8;111;0.4999637;0.05853849;-0.1003136;-0.858223;3;0;0;0;0;0;0;0;0;4106;0;0;0;0;0;37685
618.1108;-1.584;-0.183;-0.096;198.8;5.2;2.2;0;0;0;-1.9;-1.1;-4;94665;34;0;0;0;0;319.9;336.6;110.6;0.5147188;0.05649891;-0.1017043;-0.8494285;3;0;0;0;0;0;0;0;0;4106;0;0;0;0;0;64846
618.1208;-1.52;-0.19;-0.058;197.4;6.3;2.3;0;0;0;-2;-0.5;-3.9;94651;34;0;0;0;0;320.1;337.5;110.1;0.5292053;0.05436981;-0.1031163;-0.8404479;3;0;0;0;0;0;0;0;0;4106;0;0;0;0;0;12215
618.1308;-1.504;-0.224;-0.083;200.5;5;2;0;0;0;-1.7;-0.9;-3.9;94628;34;0;0;0;0;320.4;338.3;109.7;0.5437713;0.0522812;-0.1044298;-0.8310679;3;0;0;0;0;0;0;0;0;4106;0;0;0;0;0;16385
618.1408;-1.515;-0.179;-0.021;200.3;5.2;1.6;0;0;0;-1.9;-0.8;-4;94638;34;0;0;0;0;320.6;339.2;109.3;0.5581554;0.05014669;-0.1056951;-0.8214478;3;0;0;0;0;0;0;0;0;4106;0;0;0;0;0;25695
618.1508;-1.584;-0.16;-0.053;199.6;6.6;1.2;0;0;0;-1.8;-0.7;-4;94605;34;0;0;0;0;320.9;340;108.9;0.5723089;0.04788757;-0.1069597;-0.8116212;3;0;0;0;0;0;0;0;0;4106;0;0;0;0;0;23772
618.1608;-1.549;-0.227;-0.007;198.3;6.8;1.4;0;0;0;-1.7;-0.7;-3.9;94573;34;0;0;0;0;321.4;340.8;108.4;0.5861973;0.04561292;-0.1082107;-0.8016125;3;0;0;0;0;0;0;0;0;4106;0;0;0;0;0;8265
618.1708;-1.484;-0.172;-0.085;198.6;7.4;1.1;0;0;0;-1.7;-0.8;-3.7;94559;34;0;0;0;0;321.9;341.6;108;0.5999249;0.04327202;-0.1094443;-0.791353;3;0;0;0;0;0;0;0;0;4106;0;0;0;0;0;7781
618.1808;-1.451;-0.208;-0.038;199.7;7.3;0.5;0;0;0;-1.8;-0.7;-4;94585;34;0;0;0;0;322.3;342.4;107.5;0.6135466;0.04087988;-0.1106016;-0.7808052;3;0;0;0;0;0;0;0;0;4106;0;0;0;0;0;8228
618.1906;-1.586;-0.218;-0.016;199.5;8.1;-0.5;0;0;0;-1.5;-1.2;-3.9;94546;34;0;0;0;0;322.8;343.1;107.1;0.6267243;0.03841397;-0.1116749;-0.7702401;3;0;0;0;0;0;0;0;0;4106;0;0;0;0;0;46938
618.2008;-1.639;-0.173;0.004;199.9;8.7;-1.5;0;0;0;-2.3;-0.8;-3.8;94528;34;0;0;0;0;323.4;343.9;106.6;0.6402174;0.03574878;-0.1127185;-0.7590377;3;0;0;0;0;0;0;0;0;4107;0;0;0;0;0;51257
618.2108;-1.463;-0.187;-0.008;196.9;7.7;0.4;0;0;0;-1.7;-0.7;-4.2;94495;34;0;0;0;0;324.1;344.7;106.2;0.6530824;0.03332386;-0.1137752;-0.7479492;3;0;0;0;0;0;0;0;0;4107;0;0;0;0;0;39125
618.2208;-1.471;-0.175;-0.037;196.2;5.4;2.1;0;0;0;-1.5;-1;-4;94494;34;0;0;0;0;324.8;345.4;105.7;0.6657279;0.03113857;-0.1147698;-0.7366578;3;0;0;0;0;0;0;0;0;4107;0;0;0;0;0;52120
618.2308;-1.395;-0.166;-0.046;193.8;5.4;2.1;0;0;0;-1.8;-0.8;-3.9;94490;34;0;0;0;0;325.4;346.2;105.3;0.6780269;0.02896359;-0.1157288;-0.7252914;3;0;0;0;0;0;0;0;0;4107;0;0;0;0;0;57278
618.2408;-1.468;-0.156;0;193.8;5.2;2.1;0;0;0;-1.5;-1.2;-4.2;94510;34;0;0;0;0;326;347;104.8;0.6901339;0.02679362;-0.1166423;-0.713717;3;0;0;0;0;0;0;0;0;4107;0;0;0;0;0;31960
618.2508;-1.502;-0.155;-0.004;192.2;6.6;1.8;0;0;0;-1.6;-0.7;-4.2;94489;34;0;0;0;0;326.7;347.7;104.4;0.7019311;0.02453259;-0.1175901;-0.7020423;3;0;0;0;0;0;0;0;0;4107;0;0;0;0;0;36524
618.2608;-1.511;-0.207;-0.007;192.5;5.8;2.1;0;0;0;-1.7;-0.5;-4.1;94510;34;0;0;0;0;327.3;348.4;103.9;0.7135558;0.02232609;-0.1184668;-0.6901487;3;0;0;0;0;0;0;0;0;4107;0;0;0;0;0;8041
618.2708;-1.424;-0.158;-0.009;191.8;5.6;1.6;0;0;0;-1.5;-0.8;-4.2;94504;34;0;0;0;0;327.8;349.2;103.5;0.72494;0.02010283;-0.1192748;-0.6781086;3;0;0;0;0;0;0;0;0;4107;0;0;0;0;0;41060
618.2808;-1.535;-0.175;0.011;192.2;6.5;1.6;0;0;0;-1.9;-0.6;-4.3;94504;34;0;0;0;0;328.4;349.9;103;0.736141;0.01781469;-0.1200992;-0.6658493;3;0;0;0;0;0;0;0;0;4107;0;0;0;0;0;31311
618.2908;-1.381;-0.166;-0.021;191.7;4.9;2.1;0;0;0;-1.7;-0.8;-4.1;94481;34;0;0;0;0;329;350.6;102.6;0.7471179;0.01565287;-0.1208226;-0.6534308;3;0;0;0;0;0;0;0;0;4107;0;0;0;0;0;59724
618.3008;-1.409;-0.136;-0.027;188.7;6.6;2;0;0;0;-1.7;-0.5;-4.1;94479;34;0;0;0;0;329.6;351.3;102.1;0.7576998;0.01341353;-0.1216101;-0.641032;3;0;0;0;0;0;0;0;0;4103;0;0;0;0;0;11765
618.3108;-1.385;-0.155;-0.018;190.3;4.8;1.6;0;0;0;-1.5;-0.6;-3.6;94468;34;0;0;0;0;330.3;352;101.7;0.7681842;0.01123211;-0.1222263;-0.6283531;3;0;0;0;0;0;0;0;0;4103;0;0;0;0;0;7617
618.3208;-1.406;-0.189;-0.044;189.7;5.4;0.9;0;0;0;-1.8;-0.6;-4.2;94464;34;0;0;0;0;330.9;352.7;101.2;0.7784176;0.008972;-0.1228037;-0.6155524;3;0;0;0;0;0;0;0;0;4103;0;0;0;0;0;11146
618.3308;-1.472;-0.214;-0.059;189.7;5.7;0;0;0;0;-1.7;-1;-3.5;94428;34;0;0;0;0;331.7;353.4;100.8;0.7884346;0.006633582;-0.123326;-0.6025922;3;0;0;0;0;0;0;0;0;4103;0;0;0;0;0;42707
618.3408;-1.512;-0.199;-0.002;189.2;6.4;-0.6;0;0;0;-1.7;-0.9;-3.9;94420;34;0;0;0;0;332.5;354.1;100.3;0.7982069;0.004217723;-0.1238294;-0.5895034;3;0;0;0;0;0;0;0;0;4103;0;0;0;0;0;5646
618.3508;-1.391;-0.153;-0.022;189;6.3;0.1;0;0;0;-1.4;-0.9;-3.7;94394;34;0;0;0;0;333.3;354.8;99.9;0.8077484;0.001859692;-0.1243252;-0.5762658;3;0;0;0;0;0;0;0;0;4103;0;0;0;0;0;23585
618.3608;-1.389;-0.179;-0.026;188.3;6.5;0.4;0;0;0;-1.6;-0.7;-4.1;94403;34;0;0;0;0;334.1;355.5;99.4;0.8170334;-0.0004820763;-0.1248161;-0.5629183;3;0;0;0;0;0;0;0;0;4103;0;0;0;0;0;42782
618.3708;-1.361;-0.198;-0.02;189;6.1;0.4;0;0;0;-1.6;-1;-3.7;94399;34;0;0;0;0;334.9;356.2;99;0.8261393;-0.002806478;-0.1252466;-0.5493626;3;0;0;0;0;0;0;0;0;4103;0;0;0;0;0;57802
618.3808;-1.362;-0.154;-0.004;188.3;6.6;0.5;0;0;0;-1.8;-0.8;-4;94399;34;0;0;0;0;335.7;356.9;98.5;0.8349822;-0.005140913;-0.1256819;-0.5357074;3;0;0;0;0;0;0;0;0;4103;0;0;0;0;0;44764
618.3908;-1.391;-0.185;0.01;187.8;6;0;0;0;0;-1.8;-0.6;-3.8;94385;34;0;0;0;0;336.5;357.6;98.1;0.843583;-0.007483215;-0.1260167;-0.5219498;3;0;0;0;0;0;0;0;0;4103;0;0;0;0;0;31980
618.4006;-1.401;-0.164;-0.009;186.4;6.1;0.2;0;0;0;-1.7;-0.6;-3.6;94390;34;0;0;0;0;337.2;358.2;97.6;0.8517467;-0.009757622;-0.1263331;-0.5084016;3;0;0;0;0;0;0;0;0;4104;0;0;0;0;0;51296
618.4108;-1.376;-0.201;0.012;186.9;6.3;0.9;0;0;0;-1.8;-0.6;-3.9;94368;34;0;0;0;0;338;358.9;97.2;0.8599982;-0.01206901;-0.1266771;-0.4941765;3;0;0;0;0;0;0;0;0;4104;0;0;0;0;0;21835
618.4208;-1.303;-0.108;0.028;186.3;5.8;0.8;0;0;0;-1.8;-0.9;-4.1;94375;34;0;0;0;0;338.8;359.6;96.8;0.8678532;-0.01431592;-0.1269337;-0.4801184;3;0;0;0;0;0;0;0;0;4104;0;0;0;0;0;62508
618.4308;-1.336;-0.147;-0.061;185.5;6.2;1.5;0;0;0;-1.4;-0.9;-4;94373;34;0;0;0;0;339.6;360.3;96.3;0.8754408;-0.01651435;-0.1272191;-0.4659893;3;0;0;0;0;0;0;0;0;4104;0;0;0;0;0;47581
618.4408;-1.343;-0.157;0.045;184.7;6.5;1.4;0;0;0;-1.7;-0.7;-3.5;94377;34;0;0;0;0;340.3;360.9;95.9;0.8827653;-0.01871666;-0.127491;-0.4517978;3;0;0;0;0;0;0;0;0;4104;0;0;0;0;0;11335
618.4508;-1.29;-0.171;0.018;184.6;6.6;0.9;0;0;0;-1.7;-0.9;-3.9;94373;34;0;0;0;0;341;361.6;95.5;0.889856;-0.02095383;-0.1277159;-0.4374995;3;0;0;0;0;0;0;0;0;4104;0;0;0;0;0;48396
618.4608;-1.262;-0.162;-0.007;184.9;6.7;0;0;0;0;-1.4;-0.4;-4.1;94333;34;0;0;0;0;341.8;362.2;95;0.8967227;-0.0232701;-0.1278805;-0.4230763;3;0;0;0;0;0;0;0;0;4104;0;0;0;0;0;43691
618.4708;-1.365;-0.156;0.045;185.3;6.4;-1.2;0;0;0;-1.4;-0.7;-4.3;94294;34;0;0;0;0;342.8;362.9;94.6;0.9033713;-0.02566775;-0.1279451;-0.4085237;3;0;0;0;0;0;0;0;0;4104;0;0;0;0;0;16939
618.4808;-1.4;-0.168;0.02;183.6;5.2;-1.9;0;0;0;-1.9;-0.7;-4.2;94265;34;0;0;0;0;343.8;363.6;94.2;0.9097358;-0.02804949;-0.1278561;-0.3940136;3;0;0;0;0;0;0;0;0;4104;0;0;0;0;0;44020
618.4908;-1.407;-0.169;-0.009;181.6;5.4;-2.2;0;0;0;-1.7;-0.7;-3.9;94207;34;0;0;0;0;345.1;364.2;93.8;0.9157989;-0.03043168;-0.1277465;-0.3795617;3;0;0;0;0;0;0;0;0;4104;0;0;0;0;0;37377
618.5008;-1.321;-0.171;0.027;181.2;7;-2.4;0;0;0;-1.5;-0.9;-3.8;94181;34;0;0;0;0;346.4;364.9;93.3;0.9215999;-0.03287166;-0.1277277;-0.3650462;3;0;0;0;0;0;0;0;0;4105;0;0;0;0;0;60735
618.5108;-1.253;-0.17;0.05;179.6;5.4;-2.6;0;0;0;-1.3;-0.9;-3.9;94206;34;0;0;0;0;347.6;365.6;92.9;0.9271398;-0.03525417;-0.1275511;-0.3505707;3;0;0;0;0;0;0;0;0;4105;0;0;0;0;0;58144
618.5208;-1.239;-0.142;0.031;179.9;5.3;-2.8;0;0;0;-1.7;-0.9;-3.9;94225;34;0;0;0;0;348.7;366.3;92.6;0.9324588;-0.03763737;-0.1273268;-0.3359938;3;0;0;0;0;0;0;0;0;4105;0;0;0;0;0;4130
618.5308;-1.316;-0.175;0.018;177.5;5.9;-2;0;0;0;-1.6;-0.7;-3.5;94220;34;0;0;0;0;349.7;366.9;92.2;0.9374769;-0.0399408;-0.1271531;-0.3215182;3;0;0;0;0;0;0;0;0;4105;0;0;0;0;0;33165
618.5408;-1.339;-0.141;0.057;178;5.8;-1.1;0;0;0;-1.6;-0.5;-4.2;94228;34;0;0;0;0;350.7;367.6;91.8;0.9422877;-0.04216169;-0.1269613;-0.3069155;3;0;0;0;0;0;0;0;0;4105;0;0;0;0;0;25797
618.5508;-1.236;-0.174;0.043;176.8;5.4;-0.8;0;0;0;-1.7;-0.7;-3.9;94231;34;0;0;0;0;351.7;368.3;91.4;0.9468482;-0.04432579;-0.1267161;-0.2923297;3;0;0;0;0;0;0;0;0;4105;0;0;0;0;0;63685
618.5608;-1.22;-0.153;0.03;177.3;6;-0.7;0;0;0;-1.5;-1.2;-3.9;94212;34;0;0;0;0;352.7;369;91;0.9511867;-0.04649423;-0.1264928;-0.2776362;3;0;0;0;0;0;0;0;0;4105;0;0;0;0;0;37578
618.5708;-1.263;-0.147;-0.026;178.5;8.2;0;0;0;0;-1.6;-0.6;-4.2;94224;34;0;0;0;0;353.6;369.7;90.6;0.9553025;-0.04866076;-0.126437;-0.2627602;3;0;0;0;0;0;0;0;0;4105;0;0;0;0;0;12277
618.5808;-1.208;-0.16;-0.002;178.5;8.3;0.4;0;0;0;-1.2;-0.8;-4;94224;34;0;0;0;0;354.5;370.3;90.2;0.9591874;-0.05078206;-0.126366;-0.2478154;3;0;0;0;0;0;0;0;0;4105;0;0;0;0;0;48455
618.5908;-1.282;-0.177;0.061;178.2;9.4;0.8;0;0;0;-1.4;-0.5;-4.1;94234;34;0;0;0;0;355.4;371;89.9;0.9628229;-0.05287701;-0.1263684;-0.2328243;3;0;0;0;0;0;0;0;0;4105;0;0;0;0;0;56029
618.6008;-1.23;-0.167;-0.068;178.1;10.7;1;0;0;0;-1.6;-0.9;-3.9;94226;34;0;0;0;0;356.2;371.7;89.5;0.9662107;-0.05496634;-0.1264506;-0.2177745;3;0;0;0;0;0;0;0;0;4106;0;0;0;0;0;45384
618.6106;-1.232;-0.12;-0.021;176.6;9.9;1.5;0;0;0;-1.3;-1.1;-3.9;94228;34;0;0;0;0;357;372.3;89.1;0.9692937;-0.0569336;-0.1264545;-0.2030705;3;0;0;0;0;0;0;0;0;4106;0;0;0;0;0;16849
618.6208;-1.212;-0.169;0.029;176.1;10.5;1.3;0;0;0;-1.3;-0.8;-3.9;94219;34;0;0;0;0;357.7;373;88.7;0.9722391;-0.05898188;-0.1264748;-0.1878201;3;0;0;0;0;0;0;0;0;4106;0;0;0;0;0;17032
618.6308;-1.2;-0.162;-0.007;175.2;10.9;1.5;0;0;0;-1.4;-1.1;-4;94214;34;0;0;0;0;358.5;373.7;88.4;0.9748839;-0.06095973;-0.126508;-0.1728615;3;0;0;0;0;0;0;0;0;4106;0;0;0;0;0;19721
618.6408;-1.226;-0.121;-0.02;175.5;10.5;1.9;0;0;0;-1.1;-0.8;-4;94219;34;0;0;0;0;359.2;374.4;88;0.9773106;-0.06288426;-0.1264807;-0.1578359;3;0;0;0;0;0;0;0;0;4106;0;0;0;0;0;13080
618.6508;-1.215;-0.155;-0.043;175.7;11.9;1.5;0;0;0;-1.3;-0.9;-3.9;94222;34;0;0;0;0;359.9;375;87.6;0.9794912;-0.06485063;-0.1265363;-0.1427582;3;0;0;0;0;0;0;0;0;4106;0;0;0;0;0;43528
618.6608;-1.163;-0.18;-0.024;176.9;10.3;0.7;0;0;0;-1.5;-0.7;-4.1;94208;34;0;0;0;0;360.6;375.7;87.3;0.9814678;-0.06686723;-0.1264067;-0.1275573;3;0;0;0;0;0;0;0;0;4106;0;0;0;0;0;41313
618.6708;-1.227;-0.146;-0.026;178.1;10.8;0;0;0;0;-1.8;-0.6;-3.9;94192;34;0;0;0;0;361.3;376.3;86.9;0.9832118;-0.06894106;-0.1262807;-0.1122275;3;0;0;0;0;0;0;0;0;4106;0;0;0;0;0;13277
618.6808;-1.262;-0.163;-0.025;177.9;11.1;-0.4;0;0;0;-1.3;-0.7;-3.9;94142;34;0;0;0;0;362.2;377;86.5;0.9847099;-0.07103465;-0.1261453;-0.09689149;3;0;0;0;0;0;0;0;0;4106;0;0;0;0;0;63086
618.6908;-1.193;-0.129;0.016;177.8;10.1;0.6;0;0;0;-1.4;-0.9;-4;94121;34;0;0;0;0;363.1;377.7;86.2;0.9859865;-0.07301644;-0.1258984;-0.08153981;3;0;0;0;0;0;0;0;0;4106;0;0;0;0;0;33682
618.7008;-1.186;-0.123;0.014;178.1;9.7;1;0;0;0;-1.3;-0.3;-4;94098;34;0;0;0;0;364.1;378.3;85.8;0.9870339;-0.07494583;-0.1255917;-0.06613594;3;0;0;0;0;0;0;0;0;4109;0;0;0;0;0;18820
618.7108;-1.167;-0.144;-0.037;178.9;8.4;1;0;0;0;-1.6;-1.1;-3.7;94100;34;0;0;0;0;365;379;85.5;0.9878603;-0.07685775;-0.1251348;-0.05065838;3;0;0;0;0;0;0;0;0;4109;0;0;0;0;0;21778
618.7208;-1.093;-0.159;-0.034;177.3;8.3;0.2;0;0;0;-1.4;-0.9;-4;94080;34;0;0;0;0;366;379.6;85.1;0.9884364;-0.07880031;-0.1246486;-0.03531015;3;0;0;0;0;0;0;0;0;4109;0;0;0;0;0;35752
618.7308;-1.068;-0.144;-0.055;177.3;7.3;-1.3;0;0;0;-1.6;-0.7;-3.8;94075;34;0;0;0;0;367;380.3;84.8;0.9887761;-0.08085281;-0.1240376;-0.01998346;3;0;0;0;0;0;0;0;0;4109;0;0;0;0;0;50106
618.7408;-1.24;-0.128;-0.026;176.6;7.7;-2.3;0;0;0;-1.4;-0.7;-3.8;94046;34;0;0;0;0;368;380.9;84.4;0.9888672;-0.08296372;-0.1234365;-0.004720015;3;0;0;0;0;0;0;0;0;4109;0;0;0;0;0;56525
618.7508;-1.086;-0.067;-0.014;173.2;8.7;-2.6;0;0;0;-1.4;-0.7;-3.8;93990;34;0;0;0;0;369.2;381.6;84.1;0.9887133;-0.08504364;-0.1229154;0.01025875;3;0;0;0;0;0;0;0;0;4109;0;0;0;0;0;48442
618.7608;-1.122;-0.1;-0.034;173.8;7.3;1.6;0;0;0;-1.1;-0.7;-4.2;93990;34;0;0;0;0;370.4;382.3;83.8;0.9883778;-0.086755;-0.1222374;0.02531738;3;0;0;0;0;0;0;0;0;4109;0;0;0;0;0;25329
618.7708;-1.14;-0.138;-0.041;171.5;9.7;0.8;0;0;0;-1.4;-0.7;-3.9;93986;34;0;0;0;0;371.6;383;83.5;0.9877904;-0.08848374;-0.1217615;0.04018744;3;0;0;0;0;0;0;0;0;4109;0;0;0;0;0;58225
618.7808;-1.146;-0.132;-0.068;172;8.6;0.3;0;0;0;-1.3;-0.9;-4.2;93999;34;0;0;0;0;372.6;383.6;83.1;0.9869868;-0.09024389;-0.1211596;0.05507681;3;0;0;0;0;0;0;0;0;4109;0;0;0;0;0;8861
618.7908;-1.081;-0.127;-0.05;172.6;9.3;-0.8;0;0;0;-1.2;-0.6;-4.1;94003;34;0;0;0;0;373.7;384.3;82.8;0.9859408;-0.09208263;-0.1205916;0.0699956;3;0;0;0;0;0;0;0;0;4109;0;0;0;0;0;5708
618.8008;-1.098;-0.134;-0.045;173.8;8.9;-1.9;0;0;0;-1.8;-0.9;-3.8;93988;34;0;0;0;0;374.7;385;82.5;0.9846576;-0.09400568;-0.1199566;0.08498628;3;0;0;0;0;0;0;0;0;4111;0;0;0;0;0;34100
618.8108;-1.196;-0.124;-0.086;172.4;9.8;-2.4;0;0;0;-1.5;-0.7;-4;93967;34;0;0;0;0;375.8;385.7;82.2;0.9831449;-0.09592816;-0.119393;0.0998462;3;0;0;0;0;0;0;0;0;4111;0;0;0;0;0;25500
618.8206;-1.107;-0.126;-0.062;172;8.3;-2.1;0;0;0;-1.6;-0.6;-4.1;93953;34;0;0;0;0;376.9;386.3;81.9;0.9814643;-0.09778018;-0.1186844;0.1143715;3;0;0;0;0;0;0;0;0;4111;0;0;0;0;0;33207
618.8308;-1.087;-0.119;-0.052;171.5;8.3;-1.4;0;0;0;-1.4;-0.7;-3.7;93945;34;0;0;0;0;378;387;81.6;0.9795083;-0.09961148;-0.1179199;0.1293677;3;0;0;0;0;0;0;0;0;4111;0;0;0;0;0;54312
618.8408;-1.095;-0.115;-0.04;170.9;7.3;-1.7;0;0;0;-1.5;-0.7;-3.9;93936;34;0;0;0;0;379.1;387.7;81.3;0.9773807;-0.1014232;-0.117062;0.144003;3;0;0;0;0;0;0;0;0;4111;0;0;0;0;0;34280
618.8508;-1.124;-0.154;-0.053;170.7;8;-2;0;0;0;-1.2;-0.7;-3.7;93940;34;0;0;0;0;380.1;388.4;81;0.9750278;-0.1032244;-0.116249;0.1585923;3;0;0;0;0;0;0;0;0;4111;0;0;0;0;0;48168
618.8608;-1.129;-0.116;-0.061;170.6;7.5;-2.1;0;0;0;-1.3;-0.7;-4.2;93939;34;0;0;0;0;381.1;389.1;80.7;0.9724639;-0.1050217;-0.1153652;0.173134;3;0;0;0;0;0;0;0;0;4111;0;0;0;0;0;32133
618.8708;-1.115;-0.103;-0.058;169.1;8.1;-1.3;0;0;0;-1.8;-0.6;-3.8;93937;34;0;0;0;0;382;389.8;80.4;0.9697093;-0.1067002;-0.1145102;0.187527;3;0;0;0;0;0;0;0;0;4111;0;0;0;0;0;24053
618.8808;-1.081;-0.115;-0.046;169.4;6.8;-0.7;0;0;0;-1.4;-0.7;-3.9;93919;34;0;0;0;0;383;390.5;80.2;0.9667567;-0.1083326;-0.1135058;0.201896;3;0;0;0;0;0;0;0;0;4111;0;0;0;0;0;3185
618.8908;-1.066;-0.134;-0.026;168.7;5.7;-0.4;0;0;0;-1.3;-0.8;-4.1;93924;34;0;0;0;0;384;391.2;79.9;0.9636207;-0.1099228;-0.1123893;0.2161496;3;0;0;0;0;0;0;0;0;4111;0;0;0;0;0;58873
618.9008;-1.114;-0.075;-0.044;168.3;5.5;-0.5;0;0;0;-1.3;-0.7;-3.9;93905;34;0;0;0;0;384.9;391.9;79.6;0.9602844;-0.1114956;-0.1112355;0.2303243;3;0;0;0;0;0;0;0;0;4111;0;0;0;0;0;27023
618.9108;-1.048;-0.123;-0.037;169.1;4.4;-0.7;0;0;0;-1.6;-0.6;-3.9;93907;34;0;0;0;0;385.9;392.6;79.3;0.9567326;-0.1130976;-0.1099618;0.2445;3;0;0;0;0;0;0;0;0;4111;0;0;0;0;0;46800
618.9208;-1.066;-0.157;-0.01;167.6;5.1;-1.4;0;0;0;-1.7;-0.9;-4;93917;34;0;0;0;0;386.7;393.3;79.1;0.9529918;-0.1147046;-0.1087523;0.2585003;3;0;0;0;0;0;0;0;0;4111;0;0;0;0;0;49972
618.9308;-1.037;-0.073;-0.048;167.1;4.2;-1.8;0;0;0;-1.4;-0.6;-3.9;93885;34;0;0;0;0;387.6;394;78.8;0.9486136;-0.1184651;-0.1093579;0.2722848;3;0;0;0;0;0;0;0;0;4111;0;0;0;0;0;57394
618.9408;-1.037;-0.159;-0.061;165.9;3.6;-2.8;0;0;0;-1.2;-0.8;-4.3;93884;34;0;0;0;0;388.5;394.7;78.5;0.9445086;-0.1201844;-0.107999;0.2859989;3;0;0;0;0;0;0;0;0;4111;0;0;0;0;0;63859
618.9508;-1.106;-0.128;-0.038;166.1;4.1;-3.1;0;0;0;-1.6;-0.6;-4.1;93881;34;0;0;0;0;389.4;395.4;78.3;0.9401932;-0.1218855;-0.1066609;0.2996735;3;0;0;0;0;0;0;0;0;4111;0;0;0;0;0;50582
618.9608;-1.05;-0.136;-0.114;165.5;4.6;-2.8;0;0;0;-1.4;-0.8;-3.8;93857;34;0;0;0;0;390.3;396.1;78;0.9356948;-0.1235252;-0.1053418;0.3132407;3;0;0;0;0;0;0;0;0;4111;0;0;0;0;0;42076
618.9708;-0.979;-0.083;-0.09;164.6;4.3;-1.2;0;0;0;-1.2;-0.6;-4.2;93836;34;0;0;0;0;391.2;396.8;77.8;0.9305987;-0.1274177;-0.1051407;0.3266436;3;0;0;0;0;0;0;0;0;4111;0;0;0;0;0;49536
618.9808;-1.031;-0.129;-0.102;164.1;4.4;-1;0;0;0;-1;-0.8;-4.1;93830;34;0;0;0;0;392.2;397.5;77.5;0.9253846;-0.1309687;-0.1046336;0.3399448;3;0;0;0;0;0;0;0;0;4111;0;0;0;0;0;19553
618.9908;-0.988;-0.107;-0.059;163.7;4.4;-0.7;0;0;0;-1.1;-0.6;-3.9;93831;34;0;0;0;0;393.1;398.2;77.3;0.9199457;-0.1346035;-0.104565;0.353055;3;0;0;0;0;0;0;0;0;4111;0;0;0;0;0;40623
619.0008;-0.983;-0.124;-0.063;164.7;3.5;0;0;0;0;-1.3;-0.7;-4;93827;34;0;0;0;0;393.9;398.9;77;0.9143177;-0.1381462;-0.1041876;0.3661742;3;0;0;0;0;0;0;0;0;4111;0;0;0;0;0;28823
619.0108;-0.993;-0.112;-0.045;163.8;3.1;0.2;0;0;0;-0.9;-0.8;-4.3;93821;34;0;0;0;0;394.8;399.6;76.8;0.908496;-0.1418253;-0.103981;0.3790893;3;0;0;0;0;0;0;0;0;4111;0;0;0;0;0;58219
619.0208;-1.036;-0.099;-0.029;163.7;2.8;-0.2;0;0;0;-1.2;-0.7;-4.2;93848;34;0;0;0;0;395.5;400.3;76.5;0.9024418;-0.1457538;-0.1039537;0.3918524;3;0;0;0;0;0;0;0;0;4111;0;0;0;0;0;35813
619.0306;-1.008;-0.147;-0.02;163.1;2.1;-0.3;0;0;0;-1.2;-0.8;-4.1;93830;34;0;0;0;0;396.2;401;76.3;0.8964329;-0.1491569;-0.1036743;0.4042425;3;0;0;0;0;0;0;0;0;4111;0;0;0;0;0;61468
619.0408;-0.996;-0.116;-0.019;163.3;2.5;-0.5;0;0;0;-1.3;-0.6;-4.1;93811;34;0;0;0;0;397;401.7;76.1;0.8899295;-0.1530884;-0.1034979;0.4169864;3;0;0;0;0;0;0;0;0;4111;0;0;0;0;0;29216
619.0508;-1.023;-0.117;-0.055;163.6;3.6;0.2;0;0;0;-0.9;-0.8;-3.8;93805;34;0;0;0;0;397.7;402.4;75.8;0.8832977;-0.1571617;-0.102928;0.4295243;3;0;0;0;0;0;0;0;0;4111;0;0;0;0;0;2330
619.0608;-0.992;-0.104;-0.025;161.6;3.1;0.4;0;0;0;-1.3;-0.6;-3.8;93821;34;0;0;0;0;398.4;403.1;75.6;0.876551;-0.1612724;-0.1025964;0.441728;3;0;0;0;0;0;0;0;0;4111;0;0;0;0;0;52431
619.0708;-0.953;-0.081;-0.039;162.6;4;0.3;0;0;0;-1.2;-0.4;-4.1;93804;34;0;0;0;0;399.1;403.8;75.3;0.8694992;-0.1657647;-0.1021769;0.4539307;3;0;0;0;0;0;0;0;0;4111;0;0;0;0;0;65270
619.0808;-0.977;-0.121;-0.037;162.6;3.8;0.3;0;0;0;-1.5;-0.6;-4;93774;34;0;0;0;0;399.8;404.4;75.1;0.8623353;-0.1699547;-0.101479;0.4660422;3;0;0;0;0;0;0;0;0;4111;0;0;0;0;0;37819
619.0908;-0.9;-0.124;0;161.7;3.5;-0.7;0;0;0;-1.2;-0.6;-4;93780;34;0;0;0;0;400.5;405.1;74.9;0.8556342;-0.1712798;-0.09936941;0.4782041;3;0;0;0;0;0;0;0;0;4111;0;0;0;0;0;11579
619.1008;-0.937;-0.099;-0.044;162.2;3.9;-1.7;0;0;0;-1.1;-0.6;-3.6;93778;34;0;0;0;0;401.2;405.8;74.6;0.8487211;-0.1726342;-0.09729864;0.490309;3;0;0;0;0;0;0;0;0;4111;0;0;0;0;0;54980
619.1108;-1.004;-0.126;-0.021;160.5;3.7;-2.6;0;0;0;-1.2;-0.7;-4.3;93735;34;0;0;0;0;402;406.5;74.4;0.8410869;-0.177042;-0.09664711;0.5018848;3;0;0;0;0;0;0;0;0;4111;0;0;0;0;0;3123
619.1208;-1.045;-0.107;-0.087;159.8;4.2;-3.2;0;0;0;-1.1;-0.5;-4;93693;34;0;0;0;0;402.9;407.2;74.2;0.8339249;-0.1784224;-0.09461671;0.5135975;3;0;0;0;0;0;0;0;0;4111;0;0;0;0;0;56546
619.1308;-0.985;-0.088;-0.056;159;4.1;-2.4;0;0;0;-1.3;-0.7;-3.8;93674;34;0;0;0;0;403.9;407.9;73.9;0.8258783;-0.1834723;-0.0936801;0.5248686;3;0;0;0;0;0;0;0;0;4111;0;0;0;0;0;59838
619.1408;-0.94;-0.089;-0.047;157.7;5.3;-1.8;0;0;0;-1.2;-0.7;-4.2;93651;34;0;0;0;0;404.9;408.5;73.7;0.8185081;-0.1846293;-0.09161163;0.5362496;3;0;0;0;0;0;0;0;0;4111;0;0;0;0;0;46447
619.1508;-0.941;-0.104;-0.05;158.3;5.7;-1.8;0;0;0;-1.2;-0.8;-4.3;93666;34;0;0;0;0;405.8;409.2;73.5;0.8109496;-0.1857365;-0.08954559;0.5475804;3;0;0;0;0;0;0;0;0;4111;0;0;0;0;0;40361
619.1608;-0.932;-0.111;-0.071;158.9;5.9;-2.1;0;0;0;-1.1;-0.9;-4.1;93675;34;0;0;0;0;406.7;409.9;73.3;0.8032026;-0.1868223;-0.08748154;0.5588471;3;0;0;0;0;0;0;0;0;4111;0;0;0;0;0;22118
619.1708;-0.915;-0.092;-0.072;159.1;6.1;-2.4;0;0;0;-1.3;-0.7;-4.2;93692;34;0;0;0;0;407.4;410.6;73;0.7952849;-0.1878865;-0.08542068;0.5700209;3;0;0;0;0;0;0;0;0;4111;0;0;0;0;0;54818
619.1808;-0.932;-0.137;-0.022;158.4;6.1;-3.7;0;0;0;-1.2;-0.8;-4.1;93669;34;0;0;0;0;408.2;411.3;72.8;0.7872276;-0.1890017;-0.08342104;0.5810268;3;0;0;0;0;0;0;0;0;4111;0;0;0;0;0;61101
619.1908;-1.019;-0.122;-0.003;158.6;6.3;-3.8;0;0;0;-1.1;-0.6;-4.2;93664;34;0;0;0;0;409;412;72.6;0.7783346;-0.1935283;-0.08256573;0.5915446;3;0;0;0;0;0;0;0;0;4111;0;0;0;0;0;5764
619.2008;-0.895;-0.096;-0.049;156.6;5.3;-3.1;0;0;0;-1.3;-0.7;-3.5;93644;34;0;0;0;0;409.8;412.7;72.4;0.7700893;-0.1945714;-0.08043125;0.6021921;3;0;0;0;0;0;0;0;0;4113;0;0;0;0;0;45097
619.2108;-0.923;-0.114;-0.04;155.6;4.1;-1.3;0;0;0;-1.4;-0.6;-4;93637;34;0;0;0;0;410.6;413.3;72.2;0.7617942;-0.1955159;-0.07812772;0.6126493;3;0;0;0;0;0;0;0;0;4113;0;0;0;0;0;59533
619.2208;-0.915;-0.096;-0.019;155.6;4.2;-1.4;0;0;0;-1;-0.9;-4;93635;34;0;0;0;0;411.4;414;72;0.7533516;-0.1964267;-0.07582539;0.6229996;3;0;0;0;0;0;0;0;0;4113;0;0;0;0;0;27281
619.2308;-0.892;-0.087;-0.039;154.4;4;-1.3;0;0;0;-1.3;-0.4;-3.9;93630;34;0;0;0;0;412.2;414.7;71.8;0.7448394;-0.1972959;-0.07350815;0.6331549;3;0;0;0;0;0;0;0;0;4113;0;0;0;0;0;30810
619.2406;-0.874;-0.088;-0.046;154.2;4.7;-0.5;0;0;0;-1;-0.4;-4.3;93634;34;0;0;0;0;412.9;415.4;71.6;0.7363744;-0.198025;-0.07121901;0.6430138;3;0;0;0;0;0;0;0;0;4113;0;0;0;0;0;26524
619.2508;-0.918;-0.092;-0.003;154.4;4.6;-0.4;0;0;0;-1.1;-0.6;-4;93626;34;0;0;0;0;413.6;416.1;71.3;0.7274489;-0.1987455;-0.06881931;0.6531327;3;0;0;0;0;0;0;0;0;4113;0;0;0;0;0;48943
619.2608;-0.909;-0.097;-0.025;153.6;4.6;0.1;0;0;0;-1.2;-0.5;-3.9;93621;34;0;0;0;0;414.3;416.7;71.1;0.7186047;-0.1993808;-0.06643611;0.6629033;3;0;0;0;0;0;0;0;0;4113;0;0;0;0;0;21428
619.2708;-0.9;-0.099;-0.007;153.3;4.6;0;0;0;0;-1.4;-0.9;-3.9;93620;34;0;0;0;0;414.9;417.4;70.9;0.7096467;-0.1999832;-0.06404991;0.672537;3;0;0;0;0;0;0;0;0;4113;0;0;0;0;0;308
619.2808;-0.909;-0.11;-0.019;153.5;4.9;0.2;0;0;0;-1;-0.9;-3.8;93617;34;0;0;0;0;415.5;418.1;70.7;0.700551;-0.2005213;-0.06165358;0.6820691;3;0;0;0;0;0;0;0;0;4113;0;0;0;0;0;32244
619.2908;-0.883;-0.08;-0.067;153.3;4.5;-0.3;0;0;0;-1.2;-0.8;-4;93614;34;0;0;0;0;416.2;418.8;70.5;0.6913399;-0.2010729;-0.05925886;0.6914531;3;0;0;0;0;0;0;0;0;4113;0;0;0;0;0;59472
619.3008;-0.885;-0.091;-0.021;153.3;4.6;-0.4;0;0;0;-1.3;-0.8;-4.1;93604;34;0;0;0;0;416.8;419.4;70.3;0.6819978;-0.201593;-0.05686498;0.700718;3;0;0;0;0;0;0;0;0;4112;0;0;0;0;0;32709
619.3108;-0.86;-0.112;-0.036;152.5;3.9;-0.5;0;0;0;-1.1;-0.9;-3.8;93588;34;0;0;0;0;417.4;420.1;70.1;0.6725879;-0.20212;-0.05443836;0.7097954;3;0;0;0;0;0;0;0;0;4112;0;0;0;0;0;7572
619.3208;-0.841;-0.084;-0.014;151.6;4.5;-1.2;0;0;0;-1.4;-0.5;-4.1;93584;34;0;0;0;0;418;420.8;69.9;0.6630965;-0.2026138;-0.05209319;0.7187051;3;0;0;0;0;0;0;0;0;4112;0;0;0;0;0;548
619.3308;-0.89;-0.113;-0.026;151.8;4;-1.7;0;0;0;-1;-0.7;-4;93562;34;0;0;0;0;418.7;421.4;69.7;0.6534736;-0.2031318;-0.04973878;0.7274859;3;0;0;0;0;0;0;0;0;4112;0;0;0;0;0;16182
619.3408;-0.942;-0.082;-0.027;150.8;3.5;-2.1;0;0;0;-0.9;-0.5;-3.8;93552;34;0;0;0;0;419.4;422.1;69.5;0.6437921;-0.2036647;-0.04740022;0.7360744;3;0;0;0;0;0;0;0;0;4112;0;0;0;0;0;15683
619.3508;-0.86;-0.122;-0.045;150;4;-1.7;0;0;0;-1.1;-0.5;-4;93516;34;0;0;0;0;420.2;422.7;69.3;0.6340591;-0.204104;-0.04506897;0.7444995;3;0;0;0;0;0;0;0;0;4112;0;0;0;0;0;63561
619.3608;-0.843;-0.102;-0.033;150.9;4.5;-1.8;0;0;0;-1.1;-0.8;-3.7;93531;34;0;0;0;0;420.9;423.4;69.1;0.6241499;-0.204484;-0.04274416;0.7528588;3;0;0;0;0;0;0;0;0;4112;0;0;0;0;0;24023
619.3708;-0.857;-0.091;-0.048;150.4;4;-1.7;0;0;0;-1.3;-0.6;-3.7;93526;34;0;0;0;0;421.5;424;68.9;0.6141728;-0.2048595;-0.04038684;0.7610475;3;0;0;0;0;0;0;0;0;4112;0;0;0;0;0;8160
619.3808;-0.839;-0.096;-0.018;149.8;3.8;-2.1;0;0;0;-0.8;-0.6;-3.8;93532;34;0;0;0;0;422.2;424.7;68.7;0.6041205;-0.2052297;-0.038053;0.7690717;3;0;0;0;0;0;0;0;0;4112;0;0;0;0;0;27400
619.3908;-0.853;-0.098;-0.035;149.6;4.1;-2.1;0;0;0;-1;-1.1;-3.8;93525;34;0;0;0;0;422.8;425.3;68.5;0.5939794;-0.2055416;-0.03572647;0.7769586;3;0;0;0;0;0;0;0;0;4112;0;0;0;0;0;9235
619.4008;-0.858;-0.06;-0.065;149.4;4.5;-2;0;0;0;-1.1;-0.5;-4;93510;34;0;0;0;0;423.4;426;68.3;0.5837513;-0.2057858;-0.03341465;0.7847102;3;0;0;0;0;0;0;0;0;4111;0;0;0;0;0;46703
619.4108;-0.818;-0.115;-0.047;148.8;4.4;-1.8;0;0;0;-0.8;-0.6;-4.1;93512;34;0;0;0;0;424;426.6;68.1;0.5734668;-0.2059923;-0.03108571;0.7922984;3;0;0;0;0;0;0;0;0;4111;0;0;0;0;0;63655
619.4208;-0.834;-0.121;-0.03;147.4;4;-1.7;0;0;0;-0.9;-0.9;-4.1;93524;34;0;0;0;0;424.5;427.3;67.9;0.5631917;-0.2061825;-0.02874729;0.7996734;3;0;0;0;0;0;0;0;0;4111;0;0;0;0;0;16248
619.4308;-0.83;-0.092;-0.011;147.2;4.2;-1.7;0;0;0;-1;-0.6;-3.7;93500;34;0;0;0;0;425.1;427.9;67.7;0.5528377;-0.2063234;-0.02641823;0.8069097;3;0;0;0;0;0;0;0;0;4111;0;0;0;0;0;50667
619.4408;-0.815;-0.106;-0.036;147.2;4;-1.7;0;0;0;-1;-0.7;-3.8;93496;34;0;0;0;0;425.7;428.5;67.5;0.5423878;-0.2064403;-0.02407678;0.8140136;3;0;0;0;0;0;0;0;0;4111;0;0;0;0;0;10682
619.4506;-0.803;-0.089;-0.081;147.1;3.5;-1.2;0;0;0;-1.1;-0.8;-3.8;93485;34;0;0;0;0;426.3;429.2;67.3;0.5320585;-0.2065379;-0.02171589;0.8208437;3;0;0;0;0;0;0;0;0;4111;0;0;0;0;0;39504
619.4608;-0.792;-0.095;-0.034;146.3;3.1;-0.8;0;0;0;-1.2;-0.8;-4.2;93485;34;0;0;0;0;426.8;429.8;67.1;0.5213251;-0.2066121;-0.01923689;0.8277449;3;0;0;0;0;0;0;0;0;4111;0;0;0;0;0;42331
619.4708;-0.807;-0.087;-0.052;146.3;2.4;-0.7;0;0;0;-1;-1;-3.6;93479;34;0;0;0;0;427.4;430.4;66.9;0.5107043;-0.2066952;-0.01675787;0.8343725;3;0;0;0;0;0;0;0;0;4111;0;0;0;0;0;59861
619.4808;-0.818;-0.115;-0.03;145.3;2.3;-0.6;0;0;0;-1.2;-0.7;-3.9;93468;34;0;0;0;0;427.9;431.1;66.6;0.5000687;-0.2067505;-0.0142812;0.840822;3;0;0;0;0;0;0;0;0;4111;0;0;0;0;0;27463
619.4908;-0.79;-0.088;-0.049;145.3;1.8;-0.8;0;0;0;-0.8;-0.8;-4.1;93470;34;0;0;0;0;428.4;431.7;66.4;0.4893546;-0.2068176;-0.01179753;0.8471242;3;0;0;0;0;0;0;0;0;4111;0;0;0;0;0;51310
619.5008;-0.774;-0.107;-0.036;145.1;1.4;-1;0;0;0;-1;-0.7;-3.7;93477;34;0;0;0;0;428.9;432.3;66.2;0.478569;-0.2068913;-0.009312083;0.8532767;3;0;0;0;0;0;0;0;0;4111;0;0;0;0;0;2747
619.5108;-0.768;-0.1;-0.043;144.4;1;-1;0;0;0;-0.9;-0.9;-3.7;93444;34;0;0;0;0;429.4;432.9;66;0.467766;-0.2069598;-0.006816296;0.8592532;3;0;0;0;0;0;0;0;0;4111;0;0;0;0;0;40238
619.5208;-0.797;-0.085;-0.068;144.9;0.8;-0.5;0;0;0;-1.1;-1.2;-4;93432;34;0;0;0;0;430;433.5;65.8;0.4568541;-0.206989;-0.004272107;0.8651137;3;0;0;0;0;0;0;0;0;4111;0;0;0;0;0;29773
619.5308;-0.792;-0.104;-0.024;144;1;-0.3;0;0;0;-0.9;-1;-4;93433;34;0;0;0;0;430.6;434.1;65.6;0.445942;-0.2069608;-0.001736191;0.8708041;3;0;0;0;0;0;0;0;0;4111;0;0;0;0;0;41966
619.5408;-0.787;-0.07;-0.034;143.5;0.8;0.4;0;0;0;-1.1;-0.9;-3.9;93425;34;0;0;0;0;431.1;434.7;65.4;0.4350164;-0.2068859;0.0008565665;0.8763322;3;0;0;0;0;0;0;0;0;4111;0;0;0;0;0;22313
619.5508;-0.776;-0.058;-0.071;143.1;0.7;1.1;0;0;0;-0.8;-0.7;-3.7;93411;34;0;0;0;0;431.7;435.3;65.2;0.4240609;-0.2067602;0.003493706;0.8817089;3;0;0;0;0;0;0;0;0;4111;0;0;0;0;0;18889
619.5608;-0.772;-0.073;-0.025;142.5;1.2;1.7;0;0;0;-1.2;-0.6;-3.9;93409;34;0;0;0;0;432.2;435.9;65;0.4130994;-0.2065469;0.006151867;0.8869326;3;0;0;0;0;0;0;0;0;4111;0;0;0;0;0;15776
619.5708;-0.757;-0.096;-0.045;142;1.4;1.8;0;0;0;-1;-0.8;-4;93415;34;0;0;0;0;432.7;436.5;64.8;0.4021149;-0.2062808;0.008803516;0.8920058;3;0;0;0;0;0;0;0;0;4111;0;0;0;0;0;27828
619.5808;-0.744;-0.08;-0.018;142.3;0.6;1.6;0;0;0;-1.1;-0.7;-3.9;93391;34;0;0;0;0;433.3;437.1;64.6;0.3910424;-0.20605;0.01146952;0.896938;3;0;0;0;0;0;0;0;0;4111;0;0;0;0;0;12731
619.5908;-0.723;-0.088;-0.011;142.8;0.7;0.9;0;0;0;-0.9;-0.5;-3.4;93400;34;0;0;0;0;433.8;437.7;64.4;0.3798531;-0.2058052;0.01408665;0.9017525;3;0;0;0;0;0;0;0;0;4111;0;0;0;0;0;40760
619.6008;-0.774;-0.089;-0.05;142.5;0.9;-0.3;0;0;0;-0.9;-0.7;-4.2;93364;34;0;0;0;0;434.4;438.3;64.2;0.3686113;-0.2055519;0.01659471;0.9064209;3;0;0;0;0;0;0;0;0;4111;0;0;0;0;0;61707
619.6108;-0.846;-0.114;-0.033;142.3;0.7;-1.2;0;0;0;-0.7;-0.5;-3.8;93338;34;0;0;0;0;435.1;438.9;64;0.3573059;-0.2053152;0.01902694;0.9109425;3;0;0;0;0;0;0;0;0;4111;0;0;0;0;0;35738
619.6208;-0.817;-0.075;-0.058;141.1;0.7;-1.4;0;0;0;-1;-0.5;-4;93302;34;0;0;0;0;435.9;439.5;63.8;0.3460422;-0.2050557;0.021417;0.9152859;3;0;0;0;0;0;0;0;0;4111;0;0;0;0;0;3286
619.6308;-0.731;-0.052;-0.063;140.9;1.5;-0.3;0;0;0;-1;-0.8;-3.9;93286;34;0;0;0;0;436.7;440.1;63.6;0.3347601;-0.2046624;0.02387099;0.9194995;3;0;0;0;0;0;0;0;0;4111;0;0;0;0;0;21102
619.6408;-0.727;-0.076;-0.015;141;1.9;0.2;0;0;0;-1.2;-0.8;-3.9;93294;34;0;0;0;0;437.5;440.6;63.4;0.3234302;-0.2041921;0.02634405;0.9235825;3;0;0;0;0;0;0;0;0;4111;0;0;0;0;0;43062
619.6508;-0.751;-0.076;-0.043;141.6;2.3;-0.2;0;0;0;-0.7;-0.6;-4.2;93324;34;0;0;0;0;438.1;441.2;63.2;0.3120005;-0.2036711;0.028785;0.9275481;3;0;0;0;0;0;0;0;0;4111;0;0;0;0;0;30333
619.6606;-0.728;-0.067;-0.029;141.6;1.3;-0.3;0;0;0;-0.9;-0.7;-3.9;93320;34;0;0;0;0;438.8;441.8;63;0.3007265;-0.203209;0.03119837;0.9312875;3;0;0;0;0;0;0;0;0;4111;0;0;0;0;0;13237
619.6708;-0.738;-0.074;-0.021;140.7;1.2;0;0;0;0;-0.9;-0.7;-4.1;93317;34;0;0;0;0;439.4;442.4;62.8;0.2890719;-0.2027013;0.03369822;0.9349942;3;0;0;0;0;0;0;0;0;4111;0;0;0;0;0;55492
619.6808;-0.728;-0.07;-0.063;140.8;1.4;0.2;0;0;0;-0.8;-1;-4;93309;34;0;0;0;0;440;443;62.6;0.2775719;-0.2021546;0.03616482;0.9384985;3;0;0;0;0;0;0;0;0;4111;0;0;0;0;0;57133
619.6908;-0.729;-0.102;-0.048;140.9;0.9;0.2;0;0;0;-0.9;-0.8;-4;93315;34;0;0;0;0;440.5;443.6;62.4;0.2660229;-0.2016173;0.03863906;0.9418543;3;0;0;0;0;0;0;0;0;4111;0;0;0;0;0;38621
619.7008;-0.743;-0.081;-0.011;139.5;1.4;0.2;0;0;0;-1.1;-0.8;-3.7;93323;34;0;0;0;0;441;444.1;62.2;0.2545519;-0.2010127;0.04107727;0.9450449;3;0;0;0;0;0;0;0;0;4111;0;0;0;0;0;19619
619.7108;-0.718;-0.056;-0.025;139.6;1.1;0.1;0;0;0;-1.2;-1;-3.8;93312;34;0;0;0;0;441.5;444.7;62;0.2430282;-0.200404;0.04350653;0.9480942;3;0;0;0;0;0;0;0;0;4111;0;0;0;0;0;20289
619.7208;-0.718;-0.089;-0.022;139.3;1.1;0.2;0;0;0;-0.8;-0.5;-4.2;93294;34;0;0;0;0;442.1;445.3;61.8;0.2314987;-0.1997654;0.04592902;0.9509956;3;0;0;0;0;0;0;0;0;4111;0;0;0;0;0;21092
619.7308;-0.696;-0.072;-0.03;138.8;0.7;0;0;0;0;-0.8;-0.9;-3.9;93307;34;0;0;0;0;442.5;445.9;61.6;0.219972;-0.1991313;0.04833166;0.9537416;3;0;0;0;0;0;0;0;0;4111;0;0;0;0;0;49216
619.7408;-0.696;-0.086;-0.03;138.6;0.5;0;0;0;0;-0.9;-0.5;-3.8;93302;34;0;0;0;0;443;446.4;61.4;0.2084239;-0.1984862;0.05072884;0.9563417;3;0;0;0;0;0;0;0;0;4111;0;0;0;0;0;23117
619.7508;-0.668;-0.1;-0.018;138.6;0.5;-0.7;0;0;0;-1;-0.6;-4.1;93278;34;0;0;0;0;443.5;447;61.2;0.1968328;-0.1978305;0.05306144;0.9588037;3;0;0;0;0;0;0;0;0;4111;0;0;0;0;0;37372
619.7608;-0.697;-0.071;-0.052;139;1;-1.1;0;0;0;-0.8;-0.9;-4;93276;34;0;0;0;0;444;447.6;61.1;0.1851789;-0.1971046;0.05534754;0.9611427;3;0;0;0;0;0;0;0;0;4111;0;0;0;0;0;1799
619.7708;-0.783;-0.086;-0.017;138.4;1;-1.2;0;0;0;-0.8;-0.8;-3.8;93246;34;0;0;0;0;444.6;448.1;60.9;0.1735421;-0.1963607;0.0576053;0.9633313;3;0;0;0;0;0;0;0;0;4111;0;0;0;0;0;960
619.7808;-0.724;-0.055;-0.035;137.9;0.9;-0.3;0;0;0;-0.8;-0.6;-3.7;93232;34;0;0;0;0;445.3;448.7;60.7;0.1619365;-0.1955827;0.05992385;0.9653669;3;0;0;0;0;0;0;0;0;4111;0;0;0;0;0;15131
619.7908;-0.688;-0.06;-0.041;136.8;0.7;0.2;0;0;0;-1.2;-0.4;-3.9;93225;34;0;0;0;0;445.9;449.2;60.5;0.1504096;-0.1947875;0.06225793;0.9672429;3;0;0;0;0;0;0;0;0;4111;0;0;0;0;0;6453
619.8008;-0.728;-0.07;-0.013;136.4;0.5;-0.2;0;0;0;-1.3;-0.6;-3.9;93225;34;0;0;0;0;446.5;449.8;60.3;0.1388897;-0.1939891;0.06454924;0.9689744;3;0;0;0;0;0;0;0;0;4108;0;0;0;0;0;54290
619.8108;-0.657;-0.084;-0.056;135.9;0.6;-0.5;0;0;0;-1.1;-0.5;-3.8;93235;34;0;0;0;0;447.1;450.3;60.1;0.1273873;-0.1931636;0.06679863;0.970566;3;0;0;0;0;0;0;0;0;4108;0;0;0;0;0;55176
619.8208;-0.692;-0.077;-0.02;136.5;0.3;-0.8;0;0;0;-0.9;-0.7;-4;93215;34;0;0;0;0;447.7;450.9;59.9;0.1158056;-0.1923407;0.06902346;0.9720236;3;0;0;0;0;0;0;0;0;4108;0;0;0;0;0;52318
619.8308;-0.68;-0.072;-0.027;136.2;0.3;-1;0;0;0;-1;-0.9;-3.8;93212;34;0;0;0;0;448.2;451.5;59.7;0.1042277;-0.1914944;0.07121599;0.9733421;3;0;0;0;0;0;0;0;0;4108;0;0;0;0;0;48415
619.8408;-0.685;-0.087;-0.012;136.5;0;-0.7;0;0;0;-1;-0.5;-4.1;93225;34;0;0;0;0;448.7;452;59.5;0.09261581;-0.1906338;0.07343477;0.9745196;3;0;0;0;0;0;0;0;0;4108;0;0;0;0;0;53427
619.8508;-0.677;-0.087;-0.034;135.7;-0.1;-0.3;0;0;0;-1;-0.7;-4.2;93208;34;0;0;0;0;449.3;452.5;59.3;0.08106724;-0.1897609;0.07566012;0.9755484;3;0;0;0;0;0;0;0;0;4108;0;0;0;0;0;32030
619.8608;-0.66;-0.086;-0.02;135.4;0;-0.2;0;0;0;-1;-0.4;-3.8;93216;34;0;0;0;0;449.8;453.1;59.1;0.06953393;-0.1888563;0.07788166;0.9764389;3;0;0;0;0;0;0;0;0;4108;0;0;0;0;0;55078
619.8706;-0.656;-0.107;-0.007;135.6;0.3;0;0;0;0;-0.8;-0.9;-3.7;93200;34;0;0;0;0;450.3;453.6;58.9;0.05818643;-0.1879162;0.08007193;0.9771849;3;0;0;0;0;0;0;0;0;4108;0;0;0;0;0;2866
619.8808;-0.655;-0.087;-0.048;134.4;0.5;0;0;0;0;-1;-0.6;-4.2;93195;34;0;0;0;0;450.8;454.2;58.7;0.04651955;-0.1869054;0.08231022;0.9778176;3;0;0;0;0;0;0;0;0;4108;0;0;0;0;0;8983
619.8908;-0.673;-0.084;-0.034;134.5;0.2;0.5;0;0;0;-0.8;-1.1;-4;93186;34;0;0;0;0;451.3;454.7;58.6;0.03505249;-0.1859078;0.0845416;0.9782956;3;0;0;0;0;0;0;0;0;4108;0;0;0;0;0;17227
619.9008;-0.65;-0.105;-0.011;133.9;0.1;0.9;0;0;0;-1;-1;-3.6;93190;34;0;0;0;0;451.8;455.2;58.4;0.02363955;-0.1848944;0.08678128;0.9786339;3;0;0;0;0;0;0;0;0;4108;0;0;0;0;0;43876
619.9108;-0.65;-0.021;-0.036;133.3;0.2;1;0;0;0;-1.1;-1.2;-3.9;93183;34;0;0;0;0;452.3;455.8;58.2;0.01227401;-0.1838538;0.08901194;0.9788381;3;0;0;0;0;0;0;0;0;4108;0;0;0;0;0;40314
619.9208;-0.668;-0.099;0.02;132.7;-0.9;1.6;0;0;0;-0.8;-0.6;-3.9;93174;34;0;0;0;0;452.8;456.3;58;0.00095547;-0.1828818;0.09127057;0.9788887;3;0;0;0;0;0;0;0;0;4108;0;0;0;0;0;51265
619.9308;-0.647;-0.061;0.006;131.3;-0.1;1.5;0;0;0;-0.8;-0.7;-4;93177;34;0;0;0;0;453.2;456.8;57.8;-0.01023264;-0.1818316;0.09348761;0.9788221;3;0;0;0;0;0;0;0;0;4108;0;0;0;0;0;1116
619.9408;-0.649;-0.061;-0.039;130.9;-0.4;2;0;0;0;-0.9;-0.7;-4;93157;34;0;0;0;0;453.7;457.4;57.6;-0.02137804;-0.1807853;0.09572735;0.9786194;3;0;0;0;0;0;0;0;0;4108;0;0;0;0;0;1652
619.9508;-0.633;-0.091;-0.029;130.1;0;1.7;0;0;0;-0.8;-0.9;-3.9;93176;34;0;0;0;0;454.2;457.9;57.4;-0.03245643;-0.1796916;0.09791929;0.9782992;3;0;0;0;0;0;0;0;0;4108;0;0;0;0;0;22486
619.9608;-0.665;-0.072;-0.018;129.5;0.1;2;0;0;0;-0.9;-0.7;-4.1;93158;34;0;0;0;0;454.6;458.4;57.2;-0.04347129;-0.1785691;0.1001131;0.9778552;3;0;0;0;0;0;0;0;0;4108;0;0;0;0;0;42482
619.9708;-0.651;-0.072;-0.019;128.5;0.1;1.6;0;0;0;-0.5;-0.7;-4.1;93147;34;0;0;0;0;455.1;458.9;57;-0.05440846;-0.1774306;0.1022502;0.9772937;3;0;0;0;0;0;0;0;0;4108;0;0;0;0;0;19470
